File: utils/uploads/DE_65_1_60.mpt
EC-Lab ASCII FILE
Nb header lines : 60

Potentio Electrochemical Impedance Spectroscopy

Run on channel : 1 (SN 20909)
User :
CE vs. WE compliance from -10 V to 10 V
Electrode connection : standard
Ewe ctrl range : min = -10.00 V, max = 10.00 V
Acquisition started on : 02/20/2020 14:53:05
Technique started on : 02/20/2020 14:53:06
Saved on :
	File : DE_65_1_60.mpr
	Directory : P:\Chemistry\Data\VMP3\Kyler\DOE\DE_65\60C\
	Host : 10.0.4.64
Device : VMP3 (SN 1432)
Address : USB
EC-Lab for windows v11.33 (software)
Internet server v11.32 (firmware)
Command interpretor v11.33 (firmware)
Electrode material :
Initial state :
Electrolyte :
Comments :
Electrode surface area : 0.001 cm²
Characteristic mass : 0.001 g
Equivalent Weight : 0.000 g/eq.
Density : 0.000 g/cm3
Record Analogic IN 1
Cycle Definition : Charge/Discharge alternance
Mode                Single sine
E (V)               0.0000
vs.                 Eoc
tE (h:m:s)          0:00:0.0000
record              0
dI                  1.000
unit dI             mA
dt (s)              0.000
fi                  1.000
unit fi             MHz
ff                  1.000
unit ff             Hz
Nd                  20
Points              per decade
spacing             Logarithmic
Va (mV)             128.0
pw                  0.50
Na                  3
corr                0
E range min (V)     -10.000
E range max (V)     10.000
I Range             Auto
Bandwidth           5
nc cycles           0
goto Ns'            0
nr cycles           0
inc. cycle          1

freq/Hz	Re(Z)/Ohm	-Im(Z)/Ohm	|Z|/Ohm	Phase(Z)/deg	time/s	<Ewe>/V	<I>/mA	Cs/µF	Cp/µF	cycle number	I Range	|Ewe|/V	|I|/A	(Q-Qo)/mA.h	Analog IN 1/V	Re(Y)/Ohm-1	Im(Y)/Ohm-1	|Y|/Ohm-1	Phase(Y)/deg	dq/mA.h
1.00002e+06	76.2275	71.3283	104.395	-43.0983	1.64549	-0.351733	0.000394837	0.00223126	0.00104163	1	11	0.00058269	5.58158e-06	2.5402e-07	-5.82835e-05	0.0069944	0.00654486	0.00957898	43.0983	2.5402e-07
891247	84.5899	66.129	107.371	-38.0169	2.24148	-0.351223	0.000307494	0.00270041	0.00102433	1	11	0.00109783	1.02246e-05	3.44706e-07	-0.000138486	0.00733746	0.00573613	0.00931351	38.0169	9.06855e-08
794333	92.2304	62.1111	111.195	-33.9577	2.83847	-0.350761	0.000398198	0.00322588	0.00100651	1	11	0.00148896	1.33906e-05	4.26047e-07	-0.000298891	0.00745945	0.00502345	0.00899325	33.9577	8.13417e-08
707950	99.0676	56.8317	114.211	-29.8414	3.43348	-0.350343	0.000276514	0.00395574	0.000979467	1	11	0.00147342	1.29009e-05	4.27195e-07	-0.000539499	0.00759475	0.00435684	0.0087557	29.8414	1.14817e-09
630957	105.026	54.2589	118.214	-27.3219	4.0295	-0.34994	0.000460534	0.00464889	0.000979384	1	11	0.000723628	6.12133e-06	3.51039e-07	-0.000218689	0.00751553	0.00388269	0.00845922	27.3219	-7.61566e-08
562342	110.229	51.0108	121.46	-24.8333	4.62548	-0.349617	0.000340344	0.00554826	0.000978615	1	11	0.00104847	8.63223e-06	2.20453e-07	-0.000298891	0.00747185	0.00345774	0.00823313	24.8333	-1.30586e-07
501206	114.828	46.9919	124.072	-22.2561	5.22249	-0.349324	0.000357329	0.00675742	0.00096935	1	11	0.00403005	3.24816e-05	6.94661e-07	0.000102121	0.0074594	0.00305265	0.00805985	22.2561	4.74208e-07
446686	118.648	43.6061	126.407	-20.1797	5.8175	-0.349072	0.000421532	0.00817092	0.000972348	1	11	0.0082817	6.55161e-05	1.11814e-06	-0.000619701	0.00742533	0.002729	0.00791094	20.1797	4.2348e-07
398103	122.053	40.5718	128.62	-18.3874	6.41349	-0.348918	0.00032691	0.00985372	0.000980469	1	11	0.0138196	0.000107445	1.15765e-06	-0.000138486	0.00737793	0.0024525	0.00777487	18.3874	3.95051e-08
354810	125.017	37.4076	130.494	-16.6582	7.00948	-0.348796	0.000412015	0.0119912	0.00098538	1	11	0.0206388	0.000158159	1.3082e-06	-0.000699904	0.00734158	0.00219674	0.00766319	16.6582	1.50558e-07
316230	127.55	34.3807	132.103	-15.0853	7.6045	-0.348701	0.000458302	0.0146387	0.000991533	1	11	0.0287657	0.000217752	1.05902e-06	-0.000218689	0.007309	0.00197011	0.00756986	15.0853	-2.49184e-07
281835	129.642	31.5451	133.424	-13.6758	8.20048	-0.348677	0.000340726	0.0179017	0.00100066	1	11	0.038099	0.000285548	1.32597e-06	-5.82835e-05	0.0072824	0.00177199	0.00749488	13.6758	2.66952e-07
251188	131.371	28.8428	134.5	-12.3829	8.79648	-0.348664	0.000131885	0.0219677	0.00101022	1	11	0.0487077	0.00036214	6.56527e-07	-5.82835e-05	0.00726199	0.00159438	0.00743495	12.3829	-6.69445e-07
223872	132.758	26.4295	135.363	-11.2593	9.39249	-0.348653	4.9769e-06	0.0268987	0.00102544	1	11	0.0603933	0.000446159	2.78897e-07	-5.82835e-05	0.00724537	0.00144242	0.00738756	11.2593	-3.7763e-07
199544	133.93	24.1384	136.088	-10.2168	9.98948	-0.348601	0.000155592	0.0330426	0.00103957	1	11	0.0732744	0.000538435	8.99822e-07	-0.000379094	0.00723168	0.00130338	0.0073482	10.2168	6.20925e-07
177832	134.901	22.1155	136.702	-9.31017	10.5855	-0.348532	0.00047791	0.0404681	0.00105915	1	11	0.0871968	0.000637859	1.40664e-06	2.1919e-05	0.0072188	0.00118344	0.00731517	9.31017	5.06821e-07
158486	135.736	20.2855	137.243	-8.49987	11.1805	-0.348568	2.60766e-05	0.0495043	0.00108152	1	11	0.102056	0.000743612	1.11994e-06	0.000182324	0.00720631	0.00107697	0.00728634	8.49987	-2.86708e-07
141256	136.467	18.6554	137.736	-7.78426	11.6405	-0.348545	0.000135445	0.0603961	0.00110796	1	11	0.11789	0.000855914	5.04456e-07	0.000102121	0.00719337	0.000983357	0.00726028	7.78426	-6.1548e-07
125909	137.125	17.1931	138.199	-7.14657	12.1005	-0.348475	0.000508149	0.0735206	0.0011379	1	11	0.134755	0.00097508	7.93068e-07	0.000262526	0.00717973	0.000900208	0.00723594	7.14657	2.88612e-07
112205	137.717	15.8711	138.629	-6.57401	12.6955	-0.348503	-0.000245849	0.0893717	0.00117141	1	11	0.13001	0.000937827	1.27191e-06	2.1919e-05	0.00716607	0.000825849	0.0072135	6.57401	4.78846e-07
100004	138.22	14.6939	138.999	-6.0682	13.2915	-0.348412	0.000238092	0.10831	0.00121037	1	11	0.130012	0.000935345	7.72926e-07	2.1919e-05	0.00715398	0.000760525	0.0071943	6.0682	-4.98989e-07
89129.3	138.688	13.6323	139.356	-5.61386	13.8865	-0.34836	0.00050087	0.130987	0.00125348	1	11	0.129689	0.000930632	1.34555e-06	0.000342729	0.00714143	0.000701968	0.00717585	5.61386	5.7262e-07
79433.3	139.09	12.6949	139.668	-5.21501	14.4815	-0.348314	0.000518973	0.157829	0.00130393	1	11	0.129655	0.000928311	1.41283e-06	-5.82835e-05	0.00713019	0.000650782	0.00715983	5.21501	6.72813e-08
70795	139.44	11.8795	139.946	-4.86951	15.0775	-0.34829	0.00060837	0.189243	0.00136363	1	11	0.129524	0.000925531	-3.60818e-07	-0.000218689	0.00711985	0.000606569	0.00714564	4.86951	-1.77365e-06
63093.8	139.749	11.1641	140.194	-4.5675	15.6735	-0.348311	0.000368175	0.225948	0.00143285	1	11	0.12958	0.000924292	-5.89189e-07	0.000182324	0.00711033	0.000568025	0.00713298	4.5675	-2.28371e-07
56237	140.021	10.5549	140.418	-4.31085	16.2705	-0.348282	0.000507402	0.268129	0.00151497	1	11	0.129295	0.000920788	1.11119e-06	-0.000138486	0.00710143	0.000535312	0.00712158	4.31085	1.70037e-06
50122.5	140.272	10.0571	140.632	-4.10091	16.7305	-0.348289	0.000554805	0.31573	0.00161469	1	11	0.14027	0.000997428	1.28485e-06	0.000342729	0.00709254	0.000508514	0.00711075	4.10091	1.73667e-07
44666.7	140.497	9.65485	140.829	-3.93114	17.3255	-0.348252	0.000568431	0.369054	0.0017346	1	11	0.130345	0.000925558	3.08478e-06	-0.000379094	0.00708412	0.000486815	0.00710083	3.93114	1.79993e-06
39814.1	140.707	9.34997	141.018	-3.80171	17.7855	-0.348276	0.000429386	0.427537	0.00187952	1	11	0.139519	0.000989375	3.89323e-06	0.000503134	0.00707571	0.00047018	0.00709132	3.80171	8.08448e-07
35481	140.9	9.14782	141.197	-3.71466	18.3815	-0.348284	0.000227267	0.49035	0.00205822	1	11	0.130046	0.000921023	1.80111e-06	0.000422931	0.00706743	0.000458846	0.0070823	3.71466	-2.09212e-06
31621.1	141.092	9.0217	141.38	-3.65863	18.8415	-0.348247	0.00050031	0.557897	0.00227172	1	11	0.137311	0.00097122	9.42834e-07	-0.000298891	0.00705873	0.00045135	0.00707314	3.65863	-8.58279e-07
28188.1	141.262	8.99694	141.548	-3.64425	19.4375	-0.348248	0.00041166	0.627566	0.00253538	1	11	0.129545	0.000915202	2.27391e-06	-5.82835e-05	0.00705047	0.000449044	0.00706475	3.64425	1.33107e-06
25116.9	141.437	9.06504	141.727	-3.66721	19.8975	-0.348247	0.000452533	0.699011	0.00285968	1	11	0.135003	0.000952555	2.06384e-06	-5.82835e-05	0.00704136	0.000451298	0.00705581	3.66721	-2.10071e-07
22389	141.607	9.21947	141.906	-3.72505	20.3575	-0.348242	0.000454955	0.771044	0.00325452	1	11	0.139847	0.000985485	2.26791e-06	-0.000699904	0.00703201	0.000457827	0.0070469	3.72505	2.04078e-07
19948.8	141.786	9.4717	142.102	-3.82185	20.9535	-0.34824	0.000389264	0.842318	0.00374225	1	11	0.129698	0.000912713	2.50813e-06	0.000182324	0.00702156	0.000469061	0.00703721	3.82185	2.40215e-07
17786.9	141.954	9.81993	142.294	-3.95722	21.4135	-0.348245	0.000391317	0.911196	0.00433968	1	11	0.132953	0.000934356	1.80791e-06	2.1919e-05	0.00701097	0.000484995	0.00702772	3.95722	-7.00216e-07
15847.7	142.139	10.2754	142.509	-4.1348	21.8735	-0.348231	0.00040942	0.977362	0.00508119	1	11	0.135731	0.000952438	1.21374e-06	-5.82835e-05	0.00699881	0.000505954	0.00701708	4.1348	-5.94178e-07
14121.9	142.329	10.8252	142.74	-4.34942	22.3325	-0.348233	0.000415393	1.0411	0.0059879	1	11	0.138069	0.000967278	7.3725e-07	-0.000138486	0.00698558	0.000531309	0.00700576	4.34942	-4.76487e-07
12590.9	142.52	11.4835	142.982	-4.60663	22.7925	-0.348243	0.000350631	1.10075	0.00710026	1	11	0.139986	0.000979051	4.31593e-07	-0.000379094	0.00697131	0.00056171	0.0069939	4.60663	-3.05656e-07
11217.7	142.713	12.2672	143.239	-4.9129	23.3885	-0.348229	0.000425657	1.15657	0.00848277	1	11	0.129323	0.000902847	4.362e-07	0.000102121	0.00695569	0.000597891	0.00698134	4.9129	4.60721e-09
10002.2	142.935	13.1758	143.541	-5.26665	23.8485	-0.348239	0.000383665	1.20767	0.0101753	1	11	0.130484	0.00090904	1.17883e-06	-5.82835e-05	0.00693725	0.000639476	0.00696666	5.26665	7.4263e-07
8914.93	143.159	14.2213	143.864	-5.6731	24.3309	-0.348207	0.000544355	1.25534	0.012267	1	11	0.131443	0.000913659	9.91343e-07	-5.82835e-05	0.00691697	0.000687125	0.00695101	5.6731	-1.87488e-07
7944	143.4	15.4145	144.226	-6.13536	24.857	-0.348205	0.000577202	1.29972	0.0148465	1	11	0.132197	0.000916595	1.8554e-06	-0.000138486	0.00689386	0.000741044	0.00693357	6.13536	8.64054e-07
7082.23	143.652	16.7553	144.626	-6.65282	25.4339	-0.348191	0.000577202	1.34121	0.0180016	1	11	0.132796	0.000918204	2.33973e-06	-0.000298891	0.00686785	0.000801053	0.0069144	6.65282	4.84332e-07
6307.73	143.925	18.2927	145.083	-7.24339	26.0685	-0.348191	0.000435549	1.37933	0.0219277	1	11	0.133297	0.000918769	1.68006e-06	2.1919e-05	0.00683762	0.000869053	0.00689263	7.24339	-6.59668e-07
5621.06	144.218	20.0177	145.6	-7.90229	26.7693	-0.348149	0.000274485	1.41445	0.0267357	1	11	0.133675	0.000918096	2.3262e-06	2.1919e-05	0.00680289	0.000944257	0.00686811	7.90229	6.4614e-07
5011.6	144.527	21.9439	146.184	-8.6334	27.5297	-0.348177	0.000459997	1.4472	0.0326107	1	11	0.133977	0.000916499	2.77471e-06	-0.000138486	0.0067632	0.00102687	0.00684071	8.6334	4.48513e-07
4466.43	144.857	24.1139	146.85	-9.45119	28.2897	-0.348183	0.000415579	1.47772	0.0398454	1	11	0.134216	0.000913967	3.61011e-06	0.000102121	0.00671723	0.0011182	0.00680966	9.45119	8.35394e-07
3981.27	145.223	26.5337	147.627	-10.3543	29.0497	-0.348181	0.000498818	1.50661	0.0486701	1	11	0.134407	0.000910449	3.122e-06	0.000262526	0.00666351	0.00121749	0.00677382	10.3543	-4.88113e-07
3546.6	145.616	29.2498	148.525	-11.3578	29.81	-0.34819	0.000454959	1.53421	0.0595021	1	11	0.134545	0.000905876	2.96506e-06	-5.82835e-05	0.00660103	0.00132594	0.00673288	11.3578	-1.5694e-07
3161.01	146.032	32.2865	149.558	-12.4671	30.5697	-0.348178	0.000457758	1.55946	0.0726764	1	11	0.134656	0.000900355	2.85676e-06	-0.000218689	0.00652869	0.00144344	0.00668635	12.4671	-1.08296e-07
2817.3	146.495	35.6518	150.771	-13.6779	31.3299	-0.348186	0.00041054	1.58455	0.0885999	1	11	0.134731	0.000893614	2.22422e-06	2.1919e-05	0.00644448	0.00156836	0.00663257	13.6779	-6.32541e-07
2510.8	146.996	39.4148	152.188	-15.01	32.0897	-0.348184	0.000416325	1.60823	0.107871	1	11	0.134786	0.000885653	2.43439e-06	-0.000138486	0.00634662	0.00170175	0.00657081	15.01	2.10175e-07
2237.85	147.543	43.5916	153.848	-16.4597	32.85	-0.34819	0.000446372	1.6315	0.130981	1	11	0.134821	0.000876325	3.24104e-06	0.000102121	0.00623355	0.0018417	0.00649992	16.4597	8.06646e-07
1995.64	148.122	48.2332	155.778	-18.0368	33.6097	-0.348176	0.000493031	1.65345	0.158516	1	11	0.134841	0.000865598	2.77528e-06	0.000422931	0.00610394	0.00198763	0.0064194	18.0368	-4.65754e-07
1778.29	148.759	53.436	158.065	-19.7589	34.37	-0.348188	0.000496576	1.67488	0.191415	1	11	0.134847	0.000853111	3.57325e-06	0.000422931	0.00595401	0.00213875	0.00632649	19.7589	7.97965e-07
1585.51	149.418	59.1855	160.713	-21.6089	35.1297	-0.348188	0.000475673	1.69604	0.23002	1	11	0.134836	0.000838984	3.84729e-06	-5.82835e-05	0.00578497	0.00229147	0.00622228	21.6089	2.74037e-07
1411.84	150.155	65.6767	163.89	-23.6242	35.8912	-0.348186	0.000456823	1.71642	0.27564	1	11	0.134825	0.000822657	4.5392e-06	-0.000138486	0.0055903	0.00244516	0.00610166	23.6242	6.91915e-07
1258.79	150.917	72.8117	167.564	-25.7555	36.651	-0.348185	0.000476419	1.73646	0.327875	1	11	0.134798	0.00080446	5.03917e-06	0.000342729	0.00537501	0.00259323	0.00596788	25.7555	4.99966e-07
1121.79	151.735	80.8011	171.908	-28.0359	37.4094	-0.348185	0.000480151	1.75586	0.387909	1	11	0.134764	0.00078393	5.03886e-06	0.000102121	0.00513444	0.00273416	0.00581705	28.0359	-3.0148e-10
1000.32	152.61	89.6585	176.998	-30.4343	38.1687	-0.348183	0.000478097	1.77456	0.455339	1	11	0.134733	0.000761211	5.81973e-06	2.1919e-05	0.0048713	0.0028619	0.00564978	30.4343	7.80867e-07
891.427	153.514	99.5888	182.988	-32.9726	38.9274	-0.348188	0.000444504	1.79277	0.531009	1	11	0.134688	0.000736052	6.53846e-06	-0.000138486	0.00458463	0.00297418	0.00546485	32.9726	7.18728e-07
794.238	154.496	110.687	190.054	-35.6193	39.6869	-0.34818	0.000496012	1.81039	0.614061	1	11	0.134645	0.000708456	6.18221e-06	-0.000298891	0.00427722	0.00306437	0.00526166	35.6193	-3.56248e-07
707.509	155.528	123.115	198.359	-38.3648	40.4495	-0.34818	0.000512995	1.82716	0.703873	1	11	0.134605	0.000678594	6.89576e-06	0.000342729	0.00395281	0.00312901	0.00504136	38.3648	7.13547e-07
631.01	156.595	136.843	207.961	-41.1492	41.2074	-0.34818	0.000441885	1.84315	0.798071	1	11	0.134555	0.00064702	7.42378e-06	-5.82835e-05	0.00362086	0.00316415	0.00480858	41.1492	5.28017e-07
562.339	157.75	152.303	219.274	-43.9934	41.9639	-0.348182	0.00047417	1.85829	0.896506	1	11	0.134505	0.000613408	7.40611e-06	-5.82835e-05	0.00328091	0.00316761	0.0045605	43.9934	-1.76621e-08
501.444	158.977	169.497	232.385	-46.8344	42.7212	-0.348184	0.000448041	1.87256	0.996192	1	11	0.134457	0.000578596	7.93344e-06	0.000182324	0.00294386	0.00313867	0.0043032	46.8344	5.27327e-07
446.859	160.316	188.836	247.71	-49.6697	43.4779	-0.348186	0.000416127	1.8861	1.09609	1	11	0.134418	0.000542643	7.5934e-06	-0.000138486	0.0026127	0.0030775	0.00403698	49.6697	-3.40041e-07
398.089	161.709	210.536	265.472	-52.4728	44.2407	-0.348176	0.000420978	1.89895	1.19434	1	11	0.134368	0.000506149	7.46477e-06	-5.82835e-05	0.00229455	0.00298737	0.00376688	52.4728	-1.28631e-07
354.66	163.326	234.823	286.037	-55.1803	45.2519	-0.348188	0.00078678	1.91103	1.28797	1	12	0.136512	0.000477253	7.67636e-06	-5.82835e-05	0.00199623	0.00287009	0.00349605	55.1803	2.11595e-07
316.316	165.037	261.747	309.432	-57.7677	46.0089	-0.348192	0.000858804	1.92229	1.37546	1	12	0.136152	0.000440005	7.94589e-06	-0.000619701	0.00172365	0.00273369	0.00323172	57.7677	2.69528e-07
281.894	166.922	292.039	336.377	-60.2488	46.7644	-0.348183	0.000851972	1.93327	1.45721	1	12	0.135823	0.00040378	8.21274e-06	-5.82835e-05	0.00147523	0.002581	0.00297285	60.2488	2.66851e-07
251.044	169.052	326.152	367.361	-62.6013	47.5209	-0.348188	0.000862199	1.94379	1.53216	1	12	0.135533	0.000368938	8.81704e-06	-5.82835e-05	0.00125266	0.00241677	0.00272212	62.6013	6.04294e-07
223.925	171.434	363.778	402.149	-64.7675	48.2837	-0.348183	0.000851673	1.9538	1.59875	1	12	0.135292	0.000336422	9.33521e-06	0.000182324	0.00106004	0.00224938	0.00248664	64.7675	5.18172e-07
199.553	174.119	406.199	441.944	-66.7974	49.0452	-0.348197	0.00085001	1.96346	1.65869	1	12	0.135082	0.000305655	9.55254e-06	0.000182324	0.000891478	0.00207971	0.00226273	66.7974	2.1733e-07
177.781	177.095	453.723	487.06	-68.6785	49.8132	-0.348196	0.000900141	1.97307	1.71222	1	12	0.134901	0.00027697	9.56376e-06	-0.000298891	0.000746521	0.00191261	0.00205314	68.6785	1.12265e-08
158.428	180.563	506.77	537.977	-70.389	50.5797	-0.348194	0.000849596	1.98233	1.75902	1	12	0.134754	0.000250484	9.85393e-06	-0.000379094	0.00062388	0.00175099	0.00185882	70.389	2.90167e-07
141.311	184.406	565.525	594.831	-71.94	51.3329	-0.348185	0.000847002	1.99155	1.80014	1	12	0.134629	0.000226332	9.83268e-06	-0.000218689	0.000521178	0.00159832	0.00168115	71.94	-2.12555e-08
125.846	188.857	632.15	659.758	-73.3663	52.0884	-0.348197	0.000846871	2.00061	1.83667	1	12	0.134529	0.000203906	1.01838e-05	-5.82835e-05	0.000433874	0.00145228	0.00151571	73.3663	3.51163e-07
112.19	193.845	705.801	731.936	-74.6427	52.8338	-0.348191	0.000853721	2.00994	1.86897	1	12	0.13445	0.00018369	1.05772e-05	0.000102121	0.000361832	0.00131746	0.00136624	74.6427	3.9337e-07
100.032	199.593	788.064	812.947	-75.7876	53.5937	-0.348191	0.00082453	2.01892	1.89722	1	12	0.134382	0.000165303	1.07777e-05	-0.000218689	0.000302009	0.00119244	0.00123009	75.7876	2.00471e-07
89.116	206.18	880.581	904.397	-76.8221	54.3607	-0.348191	0.000818856	2.02813	1.92272	1	12	0.134326	0.000148526	1.08525e-05	-0.000138486	0.000252074	0.00107659	0.00110571	76.8221	7.47733e-08
79.4155	213.824	983.488	1006.46	-77.734	55.1252	-0.348188	0.000842036	2.03773	1.94575	1	12	0.134275	0.000133413	1.11536e-05	0.000182324	0.000211087	0.000970896	0.000993578	77.734	3.01175e-07
70.8387	222.168	1097.62	1119.88	-78.5574	55.8764	-0.348195	0.00084364	2.04691	1.96635	1	12	0.134244	0.000119874	1.12617e-05	-0.000138486	0.00017715	0.000875208	0.000892956	78.5574	1.08062e-07
63.0823	232.315	1226.68	1248.49	-79.2761	56.6569	-0.348187	0.000814953	2.05674	1.98553	1	12	0.134216	0.000107503	1.14462e-05	-0.000138486	0.000149042	0.00078698	0.000800969	79.2761	1.84525e-07
56.2418	243.356	1369.44	1390.9	-79.9235	57.4013	-0.348185	0.000833001	2.06641	2.00316	1	12	0.13419	9.64771e-05	1.15492e-05	0.000102121	0.000125792	0.00070787	0.00071896	79.9235	1.03012e-07
50.1444	256.229	1528.44	1549.77	-80.4834	58.1582	-0.348184	0.000815681	2.07658	2.01981	1	12	0.134172	8.65753e-05	1.16625e-05	0.000342729	0.000106683	0.000636376	0.000645256	80.4834	1.13244e-07
44.6712	271.586	1707.46	1728.92	-80.9623	58.9222	-0.348183	0.000814393	2.08662	2.03513	1	12	0.134162	7.75987e-05	1.18404e-05	0.000102121	9.08568e-05	0.000571215	0.000578395	80.9623	1.77892e-07
39.8089	288.424	1906.18	1927.88	-81.3959	59.6847	-0.348189	0.000816184	2.09737	2.05043	1	12	0.134146	6.95821e-05	1.20645e-05	0.000262526	7.76018e-05	0.000512867	0.000518705	81.3959	2.24133e-07
35.4653	307.654	2128.32	2150.44	-81.7747	60.4351	-0.348184	0.000840988	2.10853	2.06537	1	12	0.134134	6.23749e-05	1.21872e-05	0.000262526	6.65285e-05	0.000460237	0.000465021	81.7747	1.22709e-07
31.6296	329.835	2373.9	2396.71	-82.0899	61.1595	-0.348192	0.000836714	2.11965	2.0795	1	12	0.13413	5.59642e-05	1.22872e-05	-5.82835e-05	5.74203e-05	0.000413269	0.000417239	82.0899	9.99551e-08
28.1701	355.912	2650.35	2674.14	-82.3516	61.9647	-0.348181	0.000857599	2.13172	2.09396	1	12	0.134123	5.01556e-05	1.24545e-05	2.1919e-05	4.97709e-05	0.000370626	0.000373952	82.3516	1.6731e-07
25.1044	385.62	2959.25	2984.27	-82.5756	62.9709	-0.348181	0.000904541	2.14234	2.10657	1	13	0.134295	4.50009e-05	1.25861e-05	2.1919e-05	4.32996e-05	0.000332281	0.000335091	82.5756	1.31618e-07
22.3854	419.632	3299.73	3326.31	-82.7525	63.6574	-0.34818	0.000902842	2.15465	2.12036	1	13	0.134256	4.0362e-05	1.28706e-05	0.000182324	3.79266e-05	0.000298232	0.000300634	82.7525	2.84518e-07
19.9553	458.493	3679.7	3708.16	-82.8975	64.4182	-0.348188	0.000907774	2.16745	2.13431	1	13	0.134222	3.61965e-05	1.30292e-05	2.1919e-05	3.33439e-05	0.000267606	0.000269676	82.8975	1.58543e-07
17.7961	502.948	4101.37	4132.09	-83.0088	65.2625	-0.348184	0.000915652	2.18055	2.14824	1	13	0.134201	3.24777e-05	1.3258e-05	0.000102121	2.94566e-05	0.000240209	0.000242008	83.0088	2.28886e-07