File: utils/uploads/DE_65_3_60.mpt
EC-Lab ASCII FILE
Nb header lines : 60

Potentio Electrochemical Impedance Spectroscopy

Run on channel : 3 (SN 20921)
User :
CE vs. WE compliance from -10 V to 10 V
Electrode connection : standard
Ewe ctrl range : min = -10.00 V, max = 10.00 V
Acquisition started on : 02/20/2020 14:52:34
Technique started on : 02/20/2020 14:52:35
Saved on :
	File : DE_65_3_60.mpr
	Directory : P:\Chemistry\Data\VMP3\Kyler\DOE\DE_65\60C\
	Host : 10.0.4.64
Device : VMP3 (SN 1432)
Address : USB
EC-Lab for windows v11.33 (software)
Internet server v11.32 (firmware)
Command interpretor v11.33 (firmware)
Electrode material :
Initial state :
Electrolyte :
Comments :
Electrode surface area : 0.001 cm²
Characteristic mass : 0.001 g
Equivalent Weight : 0.000 g/eq.
Density : 0.000 g/cm3
Record Analogic IN 1
Cycle Definition : Charge/Discharge alternance
Mode                Single sine
E (V)               0.0000
vs.                 Eoc
tE (h:m:s)          0:00:0.0000
record              0
dI                  1.000
unit dI             mA
dt (s)              0.000
fi                  1.000
unit fi             MHz
ff                  1.000
unit ff             Hz
Nd                  20
Points              per decade
spacing             Logarithmic
Va (mV)             128.0
pw                  0.50
Na                  3
corr                0
E range min (V)     -10.000
E range max (V)     10.000
I Range             Auto
Bandwidth           5
nc cycles           0
goto Ns'            0
nr cycles           0
inc. cycle          1

freq/Hz	Re(Z)/Ohm	-Im(Z)/Ohm	|Z|/Ohm	Phase(Z)/deg	time/s	<Ewe>/V	<I>/mA	Cs/µF	Cp/µF	cycle number	I Range	|Ewe|/V	|I|/A	(Q-Qo)/mA.h	Analog IN 1/V	Re(Y)/Ohm-1	Im(Y)/Ohm-1	|Y|/Ohm-1	Phase(Y)/deg	dq/mA.h
1.00002e+06	86.024	31.2409	91.5212	-19.9592	1.95148	-0.00302298	-0.000545801	0.00509434	0.000593598	1	11	0.00312598	3.41558e-05	-1.34474e-07	-0.000558489	0.0102701	0.00372976	0.0109264	19.9592	-1.34474e-07
891247	88.0278	27.9683	92.3641	-17.6261	2.54749	-0.00261033	-0.000549342	0.00638493	0.000585439	1	11	0.00444815	4.81589e-05	-2.47733e-07	-0.000317989	0.0103184	0.00327838	0.0108267	17.6261	-1.1326e-07
794333	90.6351	25.5397	94.1647	-15.7371	3.14349	-0.00225874	-0.000496966	0.00784517	0.000577108	1	11	0.00625921	6.64709e-05	-2.47385e-07	-0.000398155	0.0102216	0.00288031	0.0106197	15.7371	3.48625e-10
707950	93.196	23.5198	96.118	-14.1639	3.73948	-0.00195395	-0.000430052	0.00955838	0.000572323	1	11	0.00859997	8.94731e-05	-2.75131e-07	-0.000157655	0.0100876	0.0025458	0.0104039	14.1639	-2.77463e-08
630957	95.6379	21.885	98.1099	-12.8892	4.33549	-0.00168733	-0.000415514	0.0115259	0.00057351	1	11	0.0114942	0.000117156	-2.201e-07	-0.000237822	0.00993583	0.00227363	0.0101927	12.8892	5.50312e-08
562342	97.7413	20.4987	99.8677	-11.8446	4.93149	-0.00146567	-0.000280009	0.0138068	0.000581695	1	11	0.0149489	0.000149687	-3.07243e-07	2.67859e-06	0.00980005	0.0020553	0.0100132	11.8446	-8.71434e-08
501206	99.6474	19.2531	101.49	-10.9355	5.52849	-0.00131036	-0.000312625	0.0164931	0.000593547	1	11	0.019001	0.00018722	-3.1537e-07	-7.74882e-05	0.00967423	0.00186918	0.00985315	10.9355	-8.12625e-09
446686	101.312	18.0455	102.907	-10.0995	6.12348	-0.00118231	-0.000324366	0.0197446	0.000607158	1	11	0.0236589	0.000229907	-2.28411e-07	-0.000638656	0.00956698	0.00170406	0.00971755	10.0995	8.69586e-08
398103	102.688	16.9354	104.075	-9.36501	6.71948	-0.00115249	-0.000401158	0.0236064	0.000625071	1	11	0.0289621	0.000278282	-8.47604e-07	2.67859e-06	0.00948042	0.00156353	0.00960849	9.36501	-6.19193e-07
354810	103.902	15.8099	105.097	-8.65189	7.31548	-0.00113311	-0.000386989	0.0283723	0.00064205	1	11	0.0349666	0.000332706	-1.04633e-06	-0.000157655	0.0094067	0.00143135	0.00951498	8.65189	-1.98731e-07
316230	104.962	14.7529	105.994	-8.00076	7.91148	-0.00113259	-0.0004539	0.0341147	0.000660897	1	11	0.0417669	0.000394051	-1.27617e-06	-7.74882e-05	0.0093427	0.00131316	0.00943453	8.00076	-2.29838e-07
281835	105.878	13.7146	106.762	-7.38057	8.50649	-0.00113547	-0.000345607	0.0411758	0.000679474	1	11	0.049433	0.000463019	-1.034e-06	-7.74882e-05	0.00928899	0.00120323	0.00936659	7.38057	2.42174e-07
251188	106.648	12.7752	107.411	-6.8308	9.10148	-0.00113203	-0.000324172	0.0495968	0.000701606	1	11	0.0580344	0.000540303	-1.7158e-06	-0.000398155	0.00924396	0.00110732	0.00931005	6.8308	-6.81805e-07
223872	107.318	11.8281	107.968	-6.28949	9.69748	-0.00112328	-0.000350638	0.0601045	0.000721351	1	11	0.0675773	0.000625902	-2.90552e-06	-0.000157655	0.00920628	0.00101467	0.00926202	6.28949	-1.18971e-06
199544	107.916	10.9902	108.474	-5.81498	10.2945	-0.00111246	-0.000382318	0.072573	0.000744964	1	11	0.0780562	0.000719582	-3.38232e-06	-7.74882e-05	0.00917133	0.000934012	0.00921876	5.81498	-4.76805e-07
177832	108.429	10.2228	108.91	-5.38595	10.8905	-0.00110767	-0.000362184	0.0875471	0.000771333	1	11	0.089423	0.00082107	-2.81767e-06	8.28454e-05	0.00914133	0.000861849	0.00918187	5.38595	5.64648e-07
158486	108.881	9.51426	109.296	-4.99396	11.4865	-0.00108314	-0.000363861	0.105549	0.000799832	1	11	0.101629	0.000929856	-4.58294e-06	0.000163012	0.00911477	0.000796471	0.0091495	4.99396	-1.76526e-06
141256	109.279	8.8725	109.639	-4.64172	12.0835	-0.00108165	-0.000290984	0.126989	0.000831628	1	11	0.114711	0.00104626	-3.9125e-06	-0.000718822	0.00909093	0.000738101	0.00912084	4.64172	6.70437e-07
125909	109.642	8.28772	109.955	-4.32271	12.5435	-0.00107311	-0.000270665	0.15252	0.000866503	1	11	0.128746	0.0011709	-4.89542e-06	-0.000478322	0.00906879	0.000685501	0.00909466	4.32271	-9.82924e-07
112205	109.964	7.76625	110.238	-4.03981	13.1385	-0.000997066	-0.000211207	0.18264	0.000906472	1	11	0.129187	0.00117189	-4.65108e-06	-0.000237822	0.00904872	0.000639067	0.00907126	4.03981	2.44346e-07
100004	110.248	7.30347	110.49	-3.79006	13.7345	-0.000975706	-0.000211765	0.217909	0.000952112	1	11	0.129693	0.0011738	-5.06831e-06	2.67859e-06	0.00903081	0.000598252	0.0090506	3.79006	-4.17233e-07
89129.3	110.501	6.88696	110.715	-3.56635	14.3305	-0.000943406	-0.00034261	0.259282	0.00100326	1	11	0.129599	0.00117057	-8.12885e-06	2.67859e-06	0.0090147	0.000561841	0.00903219	3.56635	-3.06054e-06
79433.3	110.726	6.52229	110.918	-3.37111	14.9265	-0.000909187	-0.000232641	0.307197	0.00106222	1	11	0.129528	0.00116778	-7.10585e-06	-7.74882e-05	0.00900009	0.000530149	0.00901569	3.37111	1.023e-06
70795	110.922	6.21712	111.096	-3.20804	15.5225	-0.000880764	-0.000247553	0.3616	0.00113242	1	11	0.129418	0.00116492	-5.76354e-06	8.28454e-05	0.00898709	0.000503721	0.0090012	3.20804	1.3423e-06
63093.8	111.107	5.96491	111.267	-3.07305	16.1185	-0.000870625	-0.000294896	0.422892	0.00121537	1	11	0.129484	0.00116372	-5.00476e-06	-7.74882e-05	0.00897449	0.000481808	0.00898742	3.07305	7.58786e-07
56237	111.264	5.76176	111.413	-2.96439	16.7135	-0.000850644	-0.000158647	0.491182	0.00131365	1	11	0.129425	0.00116167	-7.53529e-06	0.000163012	0.0089636	0.000464177	0.00897561	2.96439	-2.53054e-06
50122.5	111.412	5.61322	111.553	-2.88427	17.1735	-0.000863187	-0.000246057	0.565686	0.00143231	1	11	0.140641	0.00126075	-7.5814e-06	8.28454e-05	0.00895298	0.000451075	0.00896433	2.88427	-4.61014e-08
44666.7	111.541	5.51479	111.677	-2.83049	17.7685	-0.000819034	-0.000227981	0.646112	0.00157555	1	11	0.130332	0.00116704	-7.13143e-06	8.28454e-05	0.00894343	0.000442178	0.00895436	2.83049	4.49966e-07
39814.1	111.665	5.47262	111.799	-2.80578	18.2285	-0.000810497	-0.000176538	0.730447	0.00175027	1	11	0.140082	0.00125299	-6.48396e-06	-0.000157655	0.00893391	0.000437845	0.00894464	2.80578	6.47468e-07
35481	111.781	5.48413	111.916	-2.80875	18.8235	-0.000791748	-0.000214376	0.817931	0.00196404	1	11	0.130239	0.00116373	-4.91575e-06	-0.000398155	0.00892456	0.00043785	0.0089353	2.80875	1.56821e-06
31621.1	111.891	5.5494	112.029	-2.83934	19.2825	-0.000806285	-0.000218102	0.906977	0.00222552	1	11	0.138272	0.00123425	-4.79195e-06	0.000243179	0.00891533	0.000442169	0.00892629	2.83934	1.23802e-07
28188.1	111.993	5.67064	112.136	-2.89864	19.8785	-0.000777527	-0.000166101	0.995686	0.00254621	1	11	0.129788	0.00115741	-3.42425e-06	-0.000237822	0.00890632	0.000450962	0.00891772	2.89864	1.3677e-06
25116.9	112.103	5.84968	112.256	-2.98706	20.3385	-0.000777378	-0.00023581	1.08323	0.0029415	1	11	0.136067	0.00121212	-4.19352e-06	-0.000798989	0.00889613	0.000464211	0.00890824	2.98706	-7.6927e-07
22389	112.201	6.08592	112.366	-3.10475	20.9345	-0.000770668	-0.000240283	1.16804	0.00342643	1	11	0.129336	0.00115103	-3.56641e-06	-0.000718822	0.00888644	0.000482011	0.0088995	3.10475	6.27118e-07
19948.8	112.312	6.38826	112.494	-3.25545	21.3945	-0.00075887	-0.000124724	1.24888	0.00402744	1	11	0.133989	0.00119108	-2.8893e-06	0.000403512	0.00887503	0.000504807	0.00888938	3.25545	6.7711e-07
17786.9	112.42	6.75383	112.623	-3.43801	21.8545	-0.000768021	-0.000257057	1.32486	0.00476451	1	11	0.138045	0.00122573	-3.13114e-06	-0.000317989	0.00886322	0.000532473	0.0088792	3.43801	-2.41843e-07
15847.7	112.525	7.18747	112.755	-3.65476	22.4505	-0.000754136	-0.000216799	1.39726	0.00567756	1	11	0.129347	0.00114716	-4.69762e-07	-0.000237822	0.00885078	0.000565337	0.00886881	3.65476	2.66138e-06
14121.9	112.648	7.69516	112.91	-3.9079	22.9095	-0.000760063	-0.000145599	1.46457	0.00680264	1	11	0.132086	0.00116983	-1.15632e-06	8.28454e-05	0.00883599	0.000603601	0.00885658	3.9079	-6.86559e-07
12590.9	112.768	8.28157	113.072	-4.20021	23.3685	-0.000759876	-0.000231709	1.52633	0.00818781	1	11	0.134376	0.00118842	-5.56354e-07	-0.000317989	0.0088202	0.000647747	0.00884396	4.20021	5.99967e-07
11217.7	112.897	8.96734	113.253	-4.54143	23.8275	-0.000749774	-0.00016871	1.58217	0.00991932	1	11	0.13629	0.00120341	-7.10683e-07	2.67859e-06	0.00880208	0.000699143	0.00882981	4.54143	-1.54329e-07
10002.2	113.034	9.73644	113.453	-4.92314	24.2865	-0.000759839	-0.00025221	1.63427	0.0120363	1	11	0.137855	0.00121508	-1.37434e-06	-0.000157655	0.00878172	0.000756432	0.00881424	4.92314	-6.63662e-07
8914.93	113.181	10.6105	113.678	-5.35572	24.7689	-0.00073792	-6.58241e-05	1.68254	0.0146585	1	11	0.139135	0.00122395	-4.44995e-07	-0.000638656	0.00875841	0.000821085	0.00879681	5.35572	9.29349e-07
7944	113.335	11.6072	113.927	-5.84757	25.295	-0.00073943	-0.00010627	1.72605	0.0179164	1	11	0.140173	0.00123037	-2.02533e-07	-0.000157655	0.00873184	0.000894273	0.00877751	5.84757	2.42463e-07
7082.23	113.495	12.7176	114.206	-6.39356	26.0409	-0.000719041	7.61126e-06	1.76703	0.0219119	1	11	0.1293	0.00113217	-1.30747e-06	-0.000398155	0.00870168	0.000975058	0.00875613	6.39356	-1.10494e-06
6307.73	113.668	13.9893	114.525	-7.01619	26.6755	-0.000719562	-0.000193128	1.80365	0.0269115	1	11	0.12992	0.00113442	-8.66771e-07	-0.000237822	0.0086663	0.00106657	0.00873168	7.01619	4.40701e-07
5621.06	113.864	15.3921	114.9	-7.69855	27.3763	-0.000708715	-0.000103661	1.83952	0.0330112	1	11	0.130409	0.00113498	-1.63797e-06	-0.000317989	0.00862479	0.00116589	0.00870323	7.69855	-7.712e-07
5011.6	114.078	16.9598	115.331	-8.45616	28.1367	-0.00070933	-5.91138e-05	1.87251	0.040492	1	11	0.130798	0.00113411	-1.99925e-06	-0.000638656	0.00857641	0.00127504	0.00867067	8.45616	-3.61281e-07
4466.43	114.293	18.7259	115.817	-9.30474	28.8967	-0.000708324	-9.45286e-05	1.9029	0.0497461	1	11	0.131093	0.0011319	-2.75954e-06	-0.000317989	0.00852071	0.00139604	0.00863432	9.30474	-7.60293e-07
3981.27	114.534	20.7015	116.39	-10.2453	29.6567	-0.000718276	-0.000150632	1.93106	0.0610899	1	11	0.131323	0.0011283	-2.03462e-06	-0.000317989	0.00845482	0.00152817	0.00859181	10.2453	7.24927e-07
3546.6	114.804	22.908	117.068	-11.2846	30.4169	-0.000701204	-0.00010329	1.95894	0.0750105	1	11	0.131502	0.0011233	-1.78694e-06	2.67859e-06	0.00837693	0.00167153	0.00854207	11.2846	2.47682e-07
3161.01	115.089	25.368	117.852	-12.4304	31.1767	-0.000710355	-0.000110745	1.98476	0.0919615	1	11	0.131631	0.00111692	-1.18315e-06	-0.000478322	0.00828631	0.00182647	0.00848522	12.4304	6.03782e-07
2817.3	115.406	28.1013	118.778	-13.6852	31.9359	-0.000708305	-0.000105899	2.0103	0.112524	1	11	0.131723	0.00110899	-9.07143e-07	0.000403512	0.00818006	0.00199185	0.00841907	13.6852	2.76011e-07
2510.8	115.772	31.1541	119.89	-15.0615	32.6957	-0.000715331	-0.00010068	2.03466	0.13739	1	11	0.131797	0.00109932	-1.27705e-07	-0.000237822	0.00805443	0.00216744	0.00834096	15.0615	7.79438e-07
2237.85	116.154	34.5615	121.187	-16.5704	33.4559	-0.000708547	-7.21634e-05	2.05776	0.167368	1	11	0.13184	0.00108791	9.62957e-09	-0.000157655	0.00790904	0.00235333	0.00825173	16.5704	1.37335e-07
1995.64	116.582	38.3402	122.725	-18.2044	34.2157	-0.000716823	-0.000181573	2.0801	0.203015	1	11	0.13186	0.00107443	2.22696e-07	-0.000237822	0.00774047	0.0025456	0.00814831	18.2044	2.13067e-07
1778.29	117.052	42.5677	124.552	-19.9845	34.975	-0.000711119	-9.97484e-05	2.1025	0.245582	1	11	0.131861	0.00105868	1.85271e-07	8.28454e-05	0.00754533	0.00274397	0.00802878	19.9845	-3.7426e-08
1585.51	117.568	47.255	126.71	-21.897	35.7347	-0.000702993	-6.13544e-05	2.12424	0.295447	1	11	0.131854	0.0010406	1.02693e-06	-0.000317989	0.00732269	0.00294325	0.00789205	21.897	8.41657e-07
1411.84	118.145	52.5424	129.302	-23.976	36.4952	-0.000708659	-9.78867e-05	2.14548	0.354271	1	11	0.131833	0.00101957	5.14392e-07	-0.000157655	0.00706653	0.00314268	0.00773383	23.976	-5.12536e-07
1258.79	118.767	58.3644	132.333	-26.1704	37.255	-0.000710914	-0.000120628	2.1663	0.421384	1	11	0.131801	0.000995979	-3.66347e-07	8.28454e-05	0.00678203	0.00333282	0.0075567	26.1704	-8.80739e-07
1121.79	119.461	64.8721	135.938	-28.5038	38.0134	-0.000700701	-8.9311e-05	2.187	0.498059	1	11	0.13176	0.00096926	4.04347e-08	0.000163012	0.00646459	0.00351054	0.00735628	28.5038	4.06782e-07
1000.32	120.221	72.0801	140.173	-30.9454	38.7727	-0.000708193	-0.000146533	2.20732	0.583668	1	11	0.131711	0.00093963	-7.08092e-07	-0.000398155	0.00611855	0.00366847	0.00713402	30.9454	-7.48526e-07
891.427	121.046	80.1668	145.186	-33.5159	39.5314	-0.000709684	-0.000109442	2.2271	0.679019	1	11	0.131654	0.000906799	-1.32976e-06	-0.000398155	0.00574253	0.00380318	0.00688773	33.5159	-6.21664e-07
794.238	121.969	89.2002	151.106	-36.1793	40.2909	-0.000703068	-0.000122116	2.24649	0.782834	1	11	0.131598	0.000870899	-7.4942e-07	-0.000398155	0.00534176	0.00390661	0.00661785	36.1793	5.80336e-07
707.509	122.98	99.2967	158.063	-38.9181	41.0535	-0.000705602	-0.000142434	2.26544	0.894049	1	11	0.131534	0.00083216	-1.57484e-06	-0.000237822	0.00492237	0.00397442	0.00632658	38.9181	-8.25417e-07
631.01	124.085	110.431	166.108	-41.668	41.8114	-0.000712461	-0.000132184	2.28398	1.00947	1	11	0.131471	0.000791475	-2.21382e-06	-0.000157655	0.00449712	0.00400228	0.00602016	41.668	-6.38986e-07
562.339	125.327	122.944	175.563	-44.4501	42.5679	-0.00070098	-0.000152874	2.30204	1.12893	1	11	0.131403	0.000748467	-2.37444e-06	2.67859e-06	0.00406613	0.00398882	0.00569597	44.4501	-1.60615e-07
501.444	126.713	136.843	186.5	-47.2011	43.3252	-0.000714903	-8.35391e-05	2.31939	1.24871	1	11	0.131347	0.00070427	-2.77849e-06	-0.000317989	0.00364303	0.00393427	0.00536192	47.2011	-4.04047e-07
446.859	128.286	152.441	199.237	-49.9178	44.0819	-0.000706516	-0.000125851	2.33641	1.36776	1	11	0.131288	0.000658952	-2.59081e-06	-0.000237822	0.00323175	0.00384025	0.00501914	49.9178	1.8767e-07
398.089	130.05	169.937	213.99	-52.5738	44.8447	-0.000704708	-0.000144867	2.35262	1.48369	1	11	0.131232	0.000613262	-2.30056e-06	-0.000237822	0.00284004	0.0037111	0.00467312	52.5738	2.90252e-07
354.66	132.101	189.472	230.977	-55.1154	45.6049	-0.000707019	-0.000118959	2.36845	1.59373	1	11	0.131186	0.00056796	-2.46764e-06	-0.000317989	0.00247612	0.00355146	0.00432944	55.1154	-1.67073e-07
316.316	134.389	211.058	250.211	-57.5134	46.3619	-0.000710765	-0.000175808	2.38395	1.69624	1	11	0.131138	0.00052411	-2.26782e-06	0.000323346	0.00214659	0.00337122	0.00399662	57.5134	1.99813e-07
281.894	137.085	235.349	272.363	-59.7802	47.3674	-0.000715275	-6.54062e-05	2.39895	1.79123	1	12	0.133017	0.000488383	-2.27188e-06	-0.000317989	0.00184797	0.00317261	0.00367157	59.7802	-4.05535e-09
251.044	140.229	262.636	297.728	-61.9009	48.1239	-0.000710392	-6.91728e-05	2.41388	1.87838	1	12	0.132653	0.000445552	-1.98227e-06	-0.000398155	0.00158197	0.00296288	0.00335877	61.9009	2.89613e-07
223.925	143.866	292.674	326.122	-63.8232	48.8867	-0.000710019	-6.22753e-05	2.42847	1.95587	1	12	0.132348	0.000405823	-1.78192e-06	-0.000237822	0.00135269	0.00275184	0.00306633	63.8232	2.00341e-07
199.553	148.164	326.438	358.489	-65.5876	49.6482	-0.000713188	-4.56818e-05	2.44321	2.02586	1	12	0.132087	0.000368456	-2.16509e-06	-0.000157655	0.0011529	0.00254009	0.00278948	65.5876	-3.83165e-07
177.781	153.252	364.227	395.155	-67.1807	50.4162	-0.000722731	5.54575e-07	2.45789	2.0882	1	12	0.131867	0.00033371	-2.50821e-06	-0.000398155	0.000981454	0.00233258	0.00253065	67.1807	-3.43122e-07
158.428	159.271	406.25	436.356	-68.5922	51.1827	-0.00071289	-6.41967e-05	2.47283	2.14338	1	12	0.131687	0.000301788	-2.29189e-06	-0.000638656	0.000836479	0.00213359	0.00229171	68.5922	2.16319e-07
141.311	166.31	452.708	482.29	-69.8283	51.9359	-0.000710616	-7.16371e-05	2.48786	2.19202	1	12	0.131534	0.000272729	-2.53943e-06	2.67859e-06	0.000714993	0.00194627	0.00207344	69.8283	-2.47536e-07
125.846	174.815	505.125	534.52	-70.9102	52.6914	-0.000708752	-7.43992e-05	2.5037	2.2359	1	12	0.131414	0.000245854	-2.36884e-06	0.000163012	0.000611857	0.00176796	0.00187084	70.9102	1.70587e-07
112.19	184.86	562.969	592.543	-71.8215	53.4369	-0.00071002	-7.07256e-05	2.51989	2.27463	1	12	0.131309	0.000221603	-2.21306e-06	8.28454e-05	0.000526506	0.00160341	0.00168764	71.8215	1.55786e-07
100.032	196.821	627.221	657.377	-72.5782	54.1967	-0.000714754	-4.93224e-05	2.53665	2.30926	1	12	0.131228	0.000199624	-2.31896e-06	2.67859e-06	0.000455452	0.00145141	0.0015212	72.5782	-1.05905e-07
89.116	211.293	699.183	730.412	-73.1852	54.9637	-0.000715331	-7.41751e-05	2.55431	2.34056	1	12	0.131162	0.000179573	-2.4972e-06	-7.74882e-05	0.000396048	0.00131055	0.00136909	73.1852	-1.78242e-07
79.4155	228.538	778.815	811.654	-73.646	55.7282	-0.00071028	-7.54624e-05	2.57324	2.36923	1	12	0.13111	0.000161534	-2.3187e-06	-0.000157655	0.00034691	0.0011822	0.00123205	73.646	1.78497e-07
70.8387	249.215	866.342	901.475	-73.9514	56.4794	-0.000711455	-6.99441e-05	2.59334	2.39514	1	12	0.131063	0.000145388	-2.39901e-06	2.67859e-06	0.000306667	0.00106606	0.00110929	73.9514	-8.03014e-08
63.0823	274.3	964.736	1002.97	-74.1281	57.2598	-0.000710374	-8.16157e-05	2.6152	2.41959	1	12	0.131028	0.00013064	-2.46571e-06	-0.000237822	0.000272676	0.000959024	0.000997035	74.1281	-6.67023e-08
56.2418	304.123	1072.58	1114.87	-74.1697	58.0043	-0.000712592	-6.3886e-05	2.63834	2.44201	1	12	0.131001	0.000117504	-2.49111e-06	-0.000237822	0.000244683	0.000862951	0.00089697	74.1697	-2.5399e-08
50.1444	339.963	1191.35	1238.9	-74.0734	58.7612	-0.000716375	-7.84099e-05	2.66416	2.46355	1	12	0.130978	0.000105721	-2.52248e-06	-0.000317989	0.000221491	0.000776182	0.000807166	74.0734	-3.13706e-08
44.6712	383.111	1323.19	1377.54	-73.8524	59.5252	-0.000708845	-6.18168e-05	2.69258	2.48432	1	12	0.13096	9.50676e-05	-2.56887e-06	-0.000317989	0.000201891	0.000697292	0.000725931	73.8524	-4.63947e-08
39.8089	435.37	1467.51	1530.73	-73.4759	60.2877	-0.000710001	-6.86965e-05	2.72432	2.50393	1	12	0.130945	8.55437e-05	-2.45827e-06	2.67859e-06	0.000185806	0.000626301	0.000653282	73.4759	1.10599e-07
35.4653	498.752	1625.99	1700.76	-72.9472	61.0371	-0.000711306	-7.28169e-05	2.75994	2.52259	1	12	0.13093	7.69832e-05	-2.64303e-06	0.000163012	0.000172425	0.000562123	0.000587973	72.9472	-1.84762e-07
31.6296	573.623	1796.99	1886.32	-72.2962	61.7615	-0.000714977	-7.57631e-05	2.80016	2.54121	1	12	0.130923	6.94065e-05	-2.68827e-06	0.000243179	0.000161211	0.000505026	0.000530133	72.2962	-4.5235e-08
28.1701	664.154	1985.01	2093.17	-71.5005	62.5668	-0.000706814	-5.60385e-05	2.84623	2.55968	1	12	0.130911	6.25422e-05	-2.54429e-06	8.28454e-05	0.000151586	0.000453057	0.000477744	71.5005	1.43979e-07
25.1044	772.204	2187.14	2319.46	-70.5536	63.3229	-0.000710877	-6.35893e-05	2.89863	2.57735	1	12	0.130904	5.64375e-05	-2.51542e-06	-0.000237822	0.000143536	0.00040654	0.000431135	70.5536	2.88742e-08
22.3854	900.6	2401.79	2565.09	-69.4454	64.0094	-0.000712387	-7.69944e-05	2.9602	2.59529	1	12	0.130904	5.10331e-05	-2.66148e-06	-7.74882e-05	0.000136876	0.000365032	0.000389851	69.4454	-1.46063e-07
19.9553	1053.35	2632.62	2835.53	-68.1929	65.0222	-0.000706888	-2.44299e-05	3.02952	2.61145	1	13	0.13104	4.62135e-05	-2.42557e-06	-0.000317989	0.00013101	0.000327431	0.000352668	68.1929	2.3591e-07
17.7961	1232.47	2872.96	3126.16	-66.7812	65.8665	-0.000703151	-2.75796e-05	3.1129	2.62907	1	13	0.131009	4.19074e-05	-2.45013e-06	2.67859e-06	0.000126111	0.000293973	0.000319881	66.7812	-2.45578e-08
15.8576	1444.02	3123.88	3441.48	-65.1911	66.5879	-0.000707038	-2.51252e-05	3.21284	2.6472	1	13	0.130981	3.80595e-05	-2.4461e-06	0.000243179	0.000121922	0.000263756	0.000290573	65.1911	4.02477e-09
14.119	1692.04	3382.71	3782.29	-63.4256	67.3903	-0.000706814	-3.17469e-05	3.33236	2.66546	1	13	0.130963	3.46254e-05	-2.56584e-06	-0.000157655	0.000118277	0.000236458	0.00026439	63.4256	-1.19742e-07
12.6008	1972.56	3637.09	4137.56	-61.527	68.2808	-0.000704344	-2.65921e-05	3.47271	2.68341	1	13	0.130947	3.16484e-05	-2.47968e-06	-0.000237822	0.000115224	0.000212454	0.000241688	61.527	8.61674e-08
11.2249	2296.47	3891.03	4518.17	-59.451	68.9649	-0.00070974	-2.88565e-05	3.64397	2.70258	1	13	0.130931	2.89788e-05	-2.59931e-06	8.28454e-05	0.000112496	0.000190607	0.000221328	59.451	-1.1963e-07
10.0032	2661.92	4134.94	4917.68	-57.2281	69.7257	-0.000703645	-2.67078e-05	3.84779	2.72039	1	13	0.130926	2.66234e-05	-2.37972e-06	-0.000237822	0.000110072	0.000170982	0.000203348	57.2281	2.19591e-07
8.91838	3064.07	4355.85	5325.6	-54.876	70.57	-0.000703599	-2.40084e-05	4.09695	2.74076	1	13	0.130916	2.45824e-05	-2.60955e-06	-7.74882e-05	0.000108034	0.000153581	0.000187772	54.876	-2.29836e-07
7.93953	3511.94	4554.71	5751.44	-52.3658	71.5087	-0.000702974	-2.59811e-05	4.40113	2.76015	1	13	0.13091	2.27612e-05	-2.38106e-06	-0.000718822	0.000106168	0.000137692	0.000173869	52.3658	2.28491e-07
7.07654	3987.75	4712.94	6173.65	-49.7645	72.067	-0.000716412	-3.39987e-05	4.77207	2.78104	1	13	0.130904	2.12037e-05	-2.38509e-06	8.28454e-05	0.000104627	0.000123654	0.000161979	49.7645	-4.03315e-09
6.31058	4530.89	4846.23	6634.37	-46.926	72.6872	-0.000705174	-9.44824e-05	5.20412	2.77687	1	13	0.130897	1.97301e-05	-2.42192e-06	-0.000157655	0.00010294	0.000110104	0.00015073	46.926	-3.68279e-08
5.6205	5031.53	4896.26	7020.66	-44.2194	73.3737	-0.000706758	-7.11343e-05	5.78336	2.8129	1	13	0.130894	1.86441e-05	-2.55729e-06	-7.74882e-05	0.000102081	9.93365e-05	0.000142437	44.2194	-1.35371e-07
5.01444	5544.52	4913.96	7408.69	-41.5497	74.1312	-0.000703161	-6.22259e-05	6.45901	2.84149	1	13	0.130891	1.76672e-05	-2.70459e-06	-0.000237822	0.000101014	8.95259e-05	0.000134977	41.5497	-1.47302e-07
4.46939	6086.43	4893.23	7809.5	-38.7978	74.9725	-0.000709638	3.81899e-06	7.27739	2.85707	1	13	0.13089	1.67604e-05	-2.58668e-06	0.000243179	9.97966e-05	8.02323e-05	0.000128049	38.7978	1.17916e-07
3.97785	6594.32	4799.37	8155.91	-36.0473	75.9092	-0.000707345	-2.16904e-06	8.33658	2.88676	1	13	0.130888	1.60483e-05	-2.37593e-06	8.28454e-05	9.91344e-05	7.21504e-05	0.00012261	36.0473	2.10751e-07
3.55114	7097.64	4679.38	8501.36	-33.3963	76.9504	-0.000708435	-5.33549e-05	9.57778	2.90178	1	13	0.13089	1.53964e-05	-2.62756e-06	-0.000157655	9.82059e-05	6.47458e-05	0.000117628	33.3963	-2.51631e-07
3.1604	7558.33	4526.58	8810.12	-30.9168	78.1123	-0.000706143	-1.86076e-05	11.1252	2.93687	1	13	0.130892	1.4857e-05	-2.71566e-06	-0.000317989	9.73782e-05	5.83184e-05	0.000113506	30.9168	-8.81023e-08
2.81836	7985.91	4319.83	9079.42	-28.4103	79.4076	-0.000702194	-1.6537e-05	13.0724	2.9592	1	13	0.130888	1.44159e-05	-2.34584e-06	0.000323346	9.68744e-05	5.24024e-05	0.000110139	28.4103	3.69822e-07
2.51367	8391.23	4103.75	9340.96	-26.0611	80.8517	-0.000692565	-4.24937e-05	15.4287	2.9779	1	13	0.130887	1.40122e-05	-2.75428e-06	-0.000237822	9.61707e-05	4.70325e-05	0.000107055	26.0611	-4.08446e-07
2.23982	8738.22	3873.05	9558.09	-23.9044	82.4663	-0.000698655	-1.62841e-05	18.3465	3.01243	1	13	0.13089	1.36942e-05	-2.60209e-06	-0.000317989	9.56492e-05	4.23946e-05	0.000104623	23.9044	1.52193e-07
1.99706	9048.1	3627.51	9748.18	-21.8465	84.2697	-0.000699009	-1.9478e-05	21.9695	3.04222	1	13	0.130886	1.34267e-05	-2.4278e-06	-0.000638656	9.52162e-05	3.81734e-05	0.000102583	21.8465	1.74287e-07
1.77961	9324.68	3374.91	9916.64	-19.8969	86.2879	-0.000704287	-2.40882e-05	26.4992	3.06922	1	13	0.130887	1.31987e-05	-2.94242e-06	2.67859e-06	9.48211e-05	3.43189e-05	0.000100841	19.8969	-5.14612e-07
1.58469	9568.56	3122.21	10065.1	-18.0714	88.547	-0.000699586	-1.89445e-05	32.1674	3.09532	1	13	0.130885	1.30039e-05	-2.25796e-06	-0.000157655	9.44525e-05	3.08197e-05	9.93535e-05	18.0714	6.84454e-07
1.41224	9776.73	2884.99	10193.5	-16.4407	91.0762	-0.000697783	-1.93124e-05	39.0632	3.12903	1	13	0.130886	1.28401e-05	-3.00833e-06	0.000563846	9.40906e-05	2.7765e-05	9.81016e-05	16.4407	-7.50367e-07
1.25967	9959.78	2655.42	10307.7	-14.9286	93.905	-0.000694099	-1.67433e-05	47.5804	3.15771	1	13	0.130887	1.2698e-05	-2.38761e-06	2.67859e-06	9.37404e-05	2.49926e-05	9.70149e-05	14.9286	6.20717e-07
1.12249	10117.2	2440.02	10407.3	-13.5594	97.073	-0.000702175	-1.50381e-05	58.1093	3.19419	1	13	0.130888	1.25766e-05	-2.8334e-06	-7.74882e-05	9.34086e-05	2.25279e-05	9.60868e-05	13.5594	-4.45784e-07
1.00006	10248.1	2228.46	10487.6	-12.268	100.622	-0.000696031	-1.87651e-05	71.4146	3.22437	1	13	0.130887	1.24802e-05	-2.7045e-06	-0.000237822	9.31732e-05	2.02606e-05	9.53506e-05	12.268	1.28898e-07