File: utils/DE_206_7_30.mpt
EC-Lab ASCII FILE
Nb header lines : 60

Potentio Electrochemical Impedance Spectroscopy

Run on channel : 7 (SN 41379)
User :
CE vs. WE compliance from -10 V to 10 V
Electrode connection : standard
Ewe ctrl range : min = -10.00 V, max = 10.00 V
Acquisition started on : 12/03/2020 16:53:31
Technique started on : 12/03/2020 16:53:33
Saved on :
	File : DE_206_7_30.mpr
	Directory : P:\Chemistry\Data\VMP3\Kyler\DOE\DE_206\
	Host : 10.0.4.64
Device : VMP3 (SN 1432)
Address : USB
EC-Lab for windows v11.33 (software)
Internet server v11.32 (firmware)
Command interpretor v11.33 (firmware)
Electrode material :
Initial state :
Electrolyte :
Comments :
Electrode surface area : 0.001 cm²
Characteristic mass : 0.001 g
Equivalent Weight : 0.000 g/eq.
Density : 0.000 g/cm3
Record Analogic IN 1
Cycle Definition : Charge/Discharge alternance
Mode                Single sine
E (V)               0.0000
vs.                 Eoc
tE (h:m:s)          0:00:0.0000
record              0
dI                  1.000
unit dI             mA
dt (s)              0.000
fi                  1.000
unit fi             MHz
ff                  1.000
unit ff             Hz
Nd                  20
Points              per decade
spacing             Logarithmic
Va (mV)             128.0
pw                  0.50
Na                  3
corr                0
E range min (V)     -10.000
E range max (V)     10.000
I Range             Auto
Bandwidth           5
nc cycles           0
goto Ns'            0
nr cycles           0
inc. cycle          1

freq/Hz	Re(Z)/Ohm	-Im(Z)/Ohm	|Z|/Ohm	Phase(Z)/deg	time/s	<Ewe>/V	<I>/mA	Cs/µF	Cp/µF	cycle number	I Range	|Ewe|/V	|I|/A	(Q-Qo)/mA.h	Analog IN 1/V	Re(Y)/Ohm-1	Im(Y)/Ohm-1	|Y|/Ohm-1	Phase(Y)/deg	dq/mA.h
1.00002e+06	119.101	75.9986	141.283	-32.542	2.96347	3.33283	-0.000691654	0.00209414	0.000605951	1	11	0.000185278	1.3114e-06	-3.89761e-05	0.00092617	0.00596673	0.00380737	0.00707799	32.542	-3.89761e-05
891247	125.154	71.8428	144.308	-29.8573	3.55948	3.33223	-0.00177095	0.00248564	0.000616059	1	11	0.00114165	7.91121e-06	-3.92938e-05	0.00132694	0.00600982	0.00344985	0.0069296	29.8573	-3.17673e-07
794333	130.992	72.8449	149.884	-29.0786	4.15448	3.33191	-0.00218485	0.00275055	0.000649691	1	11	0.00276527	1.84494e-05	-3.96701e-05	0.00148724	0.00583087	0.00324257	0.00667183	29.0786	-3.76315e-07
707950	138.687	73.0268	156.739	-27.7694	4.75048	3.33172	-0.00247113	0.00307847	0.000668263	1	11	0.00523283	3.33857e-05	-4.02185e-05	0.00100632	0.00564525	0.00297255	0.00638004	27.7694	-5.48405e-07
630957	146.074	73.3724	163.466	-26.6702	5.34649	3.33163	-0.00247764	0.00343786	0.000692626	1	11	0.00863799	5.28427e-05	-4.05089e-05	0.00140709	0.00546661	0.00274586	0.00611748	26.6702	-2.90461e-07
562342	153.218	73.4626	169.919	-25.6161	5.94248	3.33153	-0.00268543	0.00385259	0.000720116	1	11	0.0130463	7.67795e-05	-4.09981e-05	0.00132694	0.00530672	0.00254439	0.00588516	25.6161	-4.8912e-07
501206	160.534	73.2876	176.472	-24.5378	6.53949	3.33151	-0.00256135	0.00433285	0.000747281	1	11	0.0185225	0.00010496	-4.14685e-05	0.00100632	0.00515486	0.00235332	0.00566663	24.5378	-4.70444e-07
446686	167.526	72.8648	182.686	-23.5064	7.13448	3.33149	-0.0026659	0.00488991	0.000777901	1	11	0.0250178	0.000136944	-4.19789e-05	0.00132694	0.00501962	0.00218326	0.00547387	23.5064	-5.10365e-07
398103	174.252	72.2697	188.644	-22.5258	7.72948	3.33145	-0.00258944	0.00553182	0.00081188	1	11	0.0325376	0.000172481	-4.19651e-05	0.000846017	0.00489655	0.0020308	0.00530098	22.5258	1.37296e-08
354810	180.812	71.0526	194.272	-21.453	8.32449	3.33142	-0.00260041	0.00631312	0.000844472	1	11	0.0411556	0.000211846	-4.2025e-05	0.00148724	0.0047908	0.00188261	0.00514743	21.453	-5.98777e-08
316230	187.071	69.6835	199.628	-20.4302	8.91948	3.33137	-0.00274793	0.0072225	0.00088004	1	11	0.0508958	0.000254953	-4.26702e-05	0.00100632	0.00469421	0.00174858	0.00500931	20.4302	-6.45227e-07
281835	193.008	68.1435	204.684	-19.4461	9.51448	3.33133	-0.0027816	0.00828708	0.000918505	1	11	0.0617562	0.000301715	-4.33217e-05	0.00116663	0.00460688	0.00162651	0.00488557	19.4461	-6.51467e-07
251188	198.671	66.3899	209.47	-18.4781	10.1095	3.33129	-0.00280224	0.00954377	0.000958695	1	11	0.0737982	0.000352309	-4.41618e-05	0.00116663	0.00452783	0.00151307	0.00477395	18.4781	-8.40093e-07
223872	203.986	64.4709	213.932	-17.5394	10.7055	3.33131	-0.00262273	0.011027	0.00100146	1	11	0.0869669	0.000406517	-4.49739e-05	0.00148724	0.00445708	0.00140868	0.00467439	17.5394	-8.12118e-07
199544	209.095	62.5038	218.237	-16.6428	11.3025	3.33127	-0.00274085	0.0127607	0.00104673	1	11	0.101315	0.000464244	-4.54858e-05	0.00108648	0.00439023	0.00131235	0.00458218	16.6428	-5.11888e-07
177832	213.9	60.4913	222.289	-15.791	11.7615	3.33125	-0.00271983	0.0147951	0.00109564	1	11	0.1168	0.000525442	-4.59311e-05	0.00092617	0.00432887	0.00122421	0.00449865	15.791	-4.45337e-07
158486	218.43	58.4464	226.115	-14.98	12.2215	3.33127	-0.0026311	0.0171819	0.00114797	1	11	0.133364	0.000589805	-4.62204e-05	0.00100632	0.00427224	0.00114314	0.00442253	14.98	-2.89208e-07
141256	222.718	56.36	229.739	-14.2009	12.8175	3.33126	-0.0027003	0.0199914	0.00120314	1	11	0.129763	0.00056483	-4.66026e-05	0.00124678	0.00421976	0.00106783	0.00435277	14.2009	-3.8228e-07
125909	226.812	54.3474	233.232	-13.4749	13.4145	3.33128	-0.00265938	0.0232586	0.00126289	1	11	0.12992	0.000557043	-4.6996e-05	0.000605557	0.00416955	0.000999086	0.00428758	13.4749	-3.93392e-07
112205	230.668	52.3169	236.526	-12.7789	14.0105	3.3313	-0.00248693	0.0271123	0.00132645	1	11	0.129697	0.000548339	-4.66475e-05	0.00140709	0.00412314	0.000935154	0.00422786	12.7789	3.48508e-07
100004	234.309	50.356	239.659	-12.1291	14.6065	3.33129	-0.002707	0.0316048	0.0013953	1	11	0.129684	0.000541119	-4.68855e-05	0.00148724	0.00407945	0.000876727	0.0041726	12.1291	-2.37966e-07
89129.3	237.766	48.4353	242.649	-11.5142	15.2025	3.3313	-0.002675	0.036867	0.00146894	1	11	0.129625	0.000534208	-4.82139e-05	0.00092617	0.00403824	0.00082263	0.00412118	11.5142	-1.32844e-06
79433.3	240.976	46.5804	245.436	-10.9403	15.7985	3.33132	-0.00263724	0.0430144	0.00154933	1	11	0.129499	0.000527628	-4.85528e-05	0.000846017	0.00400032	0.00077326	0.00407437	10.9403	-3.38859e-07
70795	244.03	44.7905	248.107	-10.4006	16.3935	3.33134	-0.0025286	0.0501916	0.00163579	1	11	0.129301	0.000521151	-4.97115e-05	0.00116663	0.0039643	0.000727628	0.00403052	10.4006	-1.15872e-06
63093.8	246.932	43.0756	250.661	-9.89531	16.8535	3.33134	-0.00251893	0.0585601	0.00172939	1	11	0.140416	0.000560186	-4.95822e-05	0.00100632	0.00393011	0.000685583	0.00398946	9.89531	1.29311e-07
56237	249.681	41.4776	253.103	-9.43196	17.4485	3.33132	-0.0026644	0.0682314	0.00183238	1	11	0.13037	0.000515086	-5.00495e-05	0.00116663	0.00389754	0.000647468	0.00395096	9.43196	-4.67329e-07
50122.5	252.223	39.9585	255.369	-9.00228	17.9085	3.33134	-0.00257641	0.0794655	0.00194564	1	11	0.139603	0.000546673	-5.00147e-05	0.000365098	0.00386767	0.000612737	0.00391591	9.00228	3.48342e-08
44666.7	254.671	38.5605	257.574	-8.60993	18.5045	3.33135	-0.00257176	0.0924046	0.00207098	1	11	0.130008	0.00050474	-5.12427e-05	0.00100632	0.00383863	0.000581219	0.00388239	8.60993	-1.22797e-06
39814.1	257.001	37.2607	259.688	-8.24943	18.9645	3.33138	-0.00246536	0.107283	0.00220867	1	11	0.137198	0.000528318	-5.16507e-05	0.00148724	0.00381093	0.00055252	0.00385078	8.24943	-4.08053e-07
35481	259.212	36.0778	261.711	-7.92368	19.5605	3.33134	-0.00264822	0.124332	0.00236277	1	11	0.129652	0.000495403	-5.32421e-05	0.0015674	0.00378453	0.000526742	0.00382101	7.92368	-1.5914e-06
31621.1	261.3	35.0206	263.637	-7.63354	20.0205	3.33134	-0.00262738	0.14372	0.00253603	1	11	0.134959	0.000511913	-5.39824e-05	0.00140709	0.00375948	0.000503863	0.0037931	7.63354	-7.40247e-07
28188.1	263.311	34.08	265.507	-7.37473	20.4805	3.33134	-0.00256004	0.165674	0.00272962	1	11	0.13964	0.000525936	-5.48105e-05	0.0015674	0.00373522	0.000483445	0.00376637	7.37473	-8.2817e-07
25116.9	265.257	33.2811	267.337	-7.15137	21.0755	3.33134	-0.0025766	0.190395	0.00295075	1	11	0.129538	0.00048455	-5.54844e-05	0.000846017	0.0037115	0.000465671	0.0037406	7.15137	-6.73824e-07
22389	267.131	32.574	269.11	-6.95233	21.5355	3.33135	-0.00253549	0.21823	0.0031974	1	11	0.132644	0.000492897	-5.59983e-05	0.00108648	0.00368863	0.000449792	0.00371596	6.95233	-5.13917e-07
19948.8	268.94	32.0057	270.838	-6.78667	21.9945	3.33134	-0.00260152	0.249274	0.00348107	1	11	0.135258	0.000499407	-5.63918e-05	0.000765864	0.00366637	0.000436323	0.00369225	6.78667	-3.93488e-07
17786.9	270.721	31.572	272.556	-6.65189	22.4535	3.33134	-0.00260803	0.283412	0.00380287	1	11	0.13741	0.000504152	-5.71851e-05	0.00116663	0.00364428	0.000425002	0.00366897	6.65189	-7.93288e-07
15847.7	272.5	31.2768	274.289	-6.54762	22.9125	3.33136	-0.00259557	0.321093	0.00417505	1	11	0.139201	0.000507499	-5.79074e-05	0.000685711	0.00362201	0.000415726	0.00364579	6.54762	-7.22308e-07
14121.9	274.193	31.0879	275.95	-6.46856	23.3725	3.33136	-0.00262403	0.362523	0.00460109	1	11	0.140645	0.000509677	-5.78983e-05	0.000765864	0.00360078	0.000408256	0.00362385	6.46856	9.02877e-09
12590.9	275.92	31.0048	277.657	-6.41137	23.9675	3.33136	-0.00256934	0.407693	0.00508365	1	11	0.129379	0.000465966	-5.83275e-05	0.000605557	0.00357904	0.000402173	0.00360157	6.41137	-4.29141e-07
11217.7	277.674	31.0772	279.407	-6.38597	24.4265	3.33137	-0.00254162	0.456534	0.00564784	1	11	0.130232	0.0004661	-5.82937e-05	0.00124678	0.0035568	0.000398076	0.003579	6.38597	3.37622e-08
10002.2	279.422	31.2581	281.165	-6.38296	24.8855	3.33137	-0.00237662	0.509051	0.00629163	1	11	0.130909	0.000465594	-5.84873e-05	0.00140709	0.00353459	0.000395403	0.00355663	6.38296	-1.9356e-07
8914.93	281.259	31.5532	283.023	-6.401	25.3679	3.33142	-0.00232435	0.565795	0.00703237	1	11	0.131443	0.000464426	-5.90877e-05	0.00148724	0.00351125	0.000393912	0.00353328	6.401	-6.00387e-07
7944	283.109	31.9854	284.91	-6.44589	25.894	3.33142	-0.00242053	0.626368	0.00789436	1	11	0.131859	0.000462811	-5.898e-05	0.00100632	0.00348769	0.000394036	0.00350988	6.44589	1.07692e-07
7082.23	285.03	32.5196	286.879	-6.50883	26.4709	3.33142	-0.00251335	0.691043	0.00887967	1	11	0.132187	0.000460775	-5.94031e-05	0.00140709	0.00346332	0.000395137	0.00348579	6.50883	-4.23109e-07
6307.73	287.016	33.1752	288.927	-6.59336	27.1056	3.3314	-0.00267965	0.760559	0.0100273	1	11	0.132456	0.000458442	-6.0286e-05	0.00140709	0.00343819	0.000397408	0.00346108	6.59336	-8.82917e-07
5621.06	289.113	33.9346	291.098	-6.69445	27.8063	3.33144	-0.0025952	0.834372	0.0113388	1	11	0.132649	0.000455687	-6.04751e-05	0.00132694	0.00341185	0.000400465	0.00343527	6.69445	-1.89095e-07
5011.6	291.323	34.7732	293.391	-6.80679	28.5667	3.33144	-0.00255297	0.91327	0.012829	1	11	0.132803	0.000452649	-6.11391e-05	0.00124678	0.0033844	0.000403972	0.00340842	6.80679	-6.63982e-07
4466.43	293.639	35.6943	295.801	-6.93078	29.3267	3.33144	-0.00255558	0.9983	0.0145365	1	11	0.132919	0.000449354	-6.1564e-05	0.00124678	0.00335595	0.000407944	0.00338066	6.93078	-4.24916e-07
3981.27	296.066	36.7226	298.334	-7.07058	30.0857	3.33144	-0.00260059	1.08859	0.0164939	1	11	0.133009	0.00044584	-6.24982e-05	0.00148724	0.00332645	0.000412597	0.00335194	7.07058	-9.34207e-07
3546.6	298.678	37.7786	301.058	-7.20883	30.845	3.33144	-0.00261045	1.18785	0.0187049	1	11	0.133077	0.000442032	-6.26933e-05	0.00124678	0.00329537	0.000416818	0.00332162	7.20883	-1.95067e-07
3161.01	301.43	38.8641	303.925	-7.34676	31.6047	3.33144	-0.00260078	1.29552	0.0211841	1	11	0.133125	0.000438021	-6.29027e-05	0.000765864	0.00326328	0.000420742	0.00329029	7.34676	-2.09398e-07
2817.3	304.359	39.9766	306.974	-7.48278	32.3639	3.33144	-0.00262459	1.41313	0.0239658	1	11	0.133159	0.000433779	-6.31675e-05	0.00164755	0.00322987	0.000424232	0.00325761	7.48278	-2.64801e-07
2510.8	307.651	41.0202	310.373	-7.59467	33.1237	3.33144	-0.00261957	1.54529	0.0269921	1	11	0.133201	0.000429164	-6.4047e-05	0.0015674	0.00319366	0.000425823	0.00322193	7.59467	-8.79574e-07
2237.85	310.798	42.1386	313.642	-7.72119	33.8839	3.33144	-0.00260599	1.68775	0.030465	1	11	0.133201	0.000424693	-6.49705e-05	0.00116663	0.00315945	0.000428364	0.00318835	7.72119	-9.23465e-07
1995.64	314.259	43.1076	317.202	-7.81064	34.6437	3.33144	-0.00263724	1.85005	0.0341681	1	11	0.133202	0.000419929	-6.53588e-05	0.000846017	0.00312332	0.000428432	0.00315257	7.81064	-3.88271e-07
1778.29	317.927	43.991	320.956	-7.8779	35.403	3.33144	-0.00266477	2.03448	0.03822	1	11	0.133211	0.000415045	-6.62022e-05	0.00124678	0.00308629	0.000427045	0.0031157	7.8779	-8.43423e-07
1585.51	321.701	44.7888	324.804	-7.92605	36.1627	3.33141	-0.0027096	2.24121	0.0426166	1	11	0.133207	0.000410116	-6.69097e-05	0.00108648	0.00304937	0.000424548	0.00307878	7.92605	-7.07469e-07
1411.84	325.688	45.3867	328.836	-7.93343	36.9242	3.33143	-0.00261715	2.48374	0.0473158	1	11	0.133203	0.000405076	-6.77251e-05	0.00092617	0.00301193	0.000419731	0.00304103	7.93343	-8.15459e-07
1258.79	329.741	45.7926	332.905	-7.90637	37.6839	3.33144	-0.00258311	2.76103	0.0522422	1	11	0.1332	0.000400115	-6.86028e-05	0.00140709	0.00297531	0.000413195	0.00300386	7.90637	-8.77689e-07
1121.79	333.857	45.9622	337.006	-7.83865	38.6944	3.33143	-0.000172748	3.08678	0.0574159	1	12	0.133783	0.000396974	-6.83677e-05	0.000846017	0.00293958	0.000404693	0.00296731	7.83865	2.35096e-07
1000.32	337.996	45.9301	341.103	-7.73848	39.4537	3.33143	-0.000205406	3.46405	0.062807	1	12	0.133729	0.000392049	-6.80915e-05	0.00100632	0.00290497	0.000394755	0.00293167	7.73848	2.76203e-07
891.427	342.197	45.6294	345.226	-7.59516	40.2124	3.33143	-0.000171668	3.91282	0.0683554	1	12	0.133674	0.000387207	-6.78176e-05	0.0015674	0.00287124	0.000382858	0.00289665	7.59516	2.73917e-07
794.238	346.322	45.097	349.245	-7.41914	40.9719	3.33143	-0.000246016	4.44347	0.0740893	1	12	0.133621	0.000382599	-6.79771e-05	0.00100632	0.00283934	0.000369731	0.00286332	7.41914	-1.59536e-07
707.509	350.37	44.3433	353.165	-7.21309	41.7344	3.33143	-0.000182858	5.07294	0.0799763	1	12	0.133564	0.000378191	-6.77856e-05	0.00164755	0.00280913	0.000355528	0.00283154	7.21309	1.91518e-07
631.01	354.245	43.3822	356.891	-6.98189	42.4924	3.33143	-0.000191907	5.81397	0.0859059	1	12	0.133511	0.000374094	-6.76443e-05	0.00124678	0.0027812	0.000340596	0.00280197	6.98189	1.41292e-07
562.339	357.955	42.2332	360.438	-6.72892	43.2489	3.33143	-0.000200286	6.70143	0.0920059	1	12	0.133461	0.000370274	-6.78678e-05	0.00124678	0.00275529	0.000325083	0.0027744	6.72892	-2.23481e-07
501.444	361.444	40.9674	363.758	-6.46651	44.0062	3.33142	-0.000213879	7.74746	0.0982675	1	12	0.133414	0.000366764	-6.76066e-05	0.00108648	0.00273159	0.000309608	0.00274908	6.46651	2.61207e-07
446.859	364.759	39.58	366.9	-6.19293	44.7629	3.33143	-0.000189524	8.99859	0.10472	1	12	0.133379	0.00036353	-6.79954e-05	0.000846017	0.00270963	0.000294022	0.00272554	6.19293	-3.8877e-07
398.089	367.825	38.1102	369.794	-5.91529	45.5257	3.33143	-0.000199355	10.4906	0.11142	1	12	0.133345	0.000360593	-6.81583e-05	0.00124678	0.00268981	0.000278691	0.00270421	5.91529	-1.62928e-07
354.66	370.658	36.6252	372.463	-5.64316	46.286	3.33143	-0.000209857	12.2526	0.118474	1	12	0.133311	0.000357919	-6.8286e-05	0.00124678	0.00267182	0.000264007	0.00268483	5.64316	-1.27736e-07
316.316	373.255	35.1505	374.906	-5.37984	47.0429	3.33143	-0.000214158	14.3142	0.12583	1	12	0.133288	0.000355522	-6.82615e-05	0.00124678	0.00265558	0.000250084	0.00266733	5.37984	2.44852e-08
281.894	375.657	33.7008	377.166	-5.12637	47.7984	3.33143	-0.000202558	16.753	0.133755	1	12	0.133261	0.000353321	-6.82107e-05	0.000846017	0.00264075	0.000236906	0.00265135	5.12637	5.08252e-08
251.044	377.867	32.3077	379.246	-4.88691	48.5549	3.33142	-0.000237004	19.6229	0.142408	1	12	0.133245	0.000351341	-6.78658e-05	0.00092617	0.00262723	0.000224628	0.00263681	4.88691	3.44963e-07
223.925	379.875	31.0576	381.143	-4.67396	49.3177	3.33142	-0.000209224	22.8849	0.151953	1	12	0.13323	0.000349554	-6.75734e-05	0.000685711	0.00261496	0.000213793	0.00262369	4.67396	2.9234e-07
199.553	381.729	29.8474	382.894	-4.47086	50.0782	3.33143	-0.000219856	26.7212	0.162372	1	12	0.133211	0.000347905	-6.76718e-05	0.00124678	0.00260374	0.000203586	0.00261169	4.47086	-9.83376e-08
177.781	383.488	28.79	384.567	-4.29338	50.8463	3.33142	-0.000142883	31.0951	0.174274	1	12	0.1332	0.000346363	-6.79931e-05	0.00124678	0.00259303	0.00019467	0.00260033	4.29338	-3.2136e-07
158.428	385.098	27.8468	386.104	-4.13591	51.6127	3.33142	-0.000204011	36.0754	0.187653	1	12	0.133193	0.000344968	-6.78267e-05	0.000685711	0.00258323	0.000186796	0.00258998	4.13591	1.66417e-07
141.311	386.602	27.0289	387.545	-3.99928	52.3659	3.33143	-0.000190549	41.6691	0.202687	1	12	0.133185	0.000343663	-6.80117e-05	0.00124678	0.00257406	0.000179963	0.00258034	3.99928	-1.85035e-07
125.846	388.064	26.3453	388.957	-3.8838	53.1214	3.33142	-0.000210956	48.0041	0.220233	1	12	0.133178	0.000342397	-6.79691e-05	0.000765864	0.00256507	0.000174141	0.00257098	3.8838	4.26258e-08
112.19	389.442	25.8105	390.296	-3.79176	53.8668	3.33143	-0.000217231	54.963	0.240366	1	12	0.13317	0.000341203	-6.80109e-05	0.00100632	0.00255655	0.000169436	0.00256216	3.79176	-4.17728e-08
100.032	390.797	25.4134	391.623	-3.72069	54.6267	3.33142	-0.000226689	62.6062	0.263638	1	12	0.133167	0.000340039	-6.82723e-05	0.000846017	0.0025481	0.000165702	0.00255348	3.72069	-2.61444e-07
89.116	392.115	25.1417	392.92	-3.66868	55.3937	3.33143	-0.000170849	71.0346	0.290838	1	12	0.133164	0.000338909	-6.84971e-05	0.0015674	0.00253983	0.000162849	0.00254505	3.66868	-2.24737e-07
79.4155	393.414	24.9984	394.207	-3.63582	56.1583	3.33143	-0.000205724	80.1683	0.322387	1	12	0.133154	0.000337776	-6.83029e-05	0.00116663	0.00253163	0.000160866	0.00253674	3.63582	1.94201e-07
70.8387	394.732	24.9603	395.52	-3.61819	56.9094	3.33143	-0.00020442	90.0119	0.358477	1	12	0.133154	0.000336656	-6.83821e-05	0.00148724	0.00252328	0.000159556	0.00252832	3.61819	-7.92844e-08
63.0823	396.024	25.0583	396.816	-3.62055	57.6898	3.33143	-0.000241883	100.684	0.401501	1	12	0.13315	0.000335546	-6.86144e-05	0.00092617	0.00251503	0.000159138	0.00252006	3.62055	-2.32307e-07
56.2418	397.342	25.2805	398.146	-3.64048	58.4333	3.33143	-0.000184814	111.937	0.451297	1	12	0.133144	0.000334409	-6.84733e-05	0.0015674	0.00250657	0.000159478	0.00251164	3.64048	1.41138e-07
50.1444	398.729	25.6375	399.552	-3.67895	59.1902	3.33143	-0.000230804	123.8	0.509714	1	12	0.133144	0.000333233	-6.83395e-05	0.00124678	0.00249764	0.000160594	0.0025028	3.67895	1.3383e-07
44.6712	400.118	26.0744	400.967	-3.72851	59.9542	3.33143	-0.000207102	136.64	0.577817	1	12	0.133149	0.000332069	-6.85416e-05	0.00164755	0.00248869	0.00016218	0.00249397	3.72851	-2.02145e-07
39.8089	401.544	26.6342	402.427	-3.79484	60.7167	3.33143	-0.000257486	150.107	0.657516	1	12	0.133143	0.000330851	-6.83682e-05	0.00140709	0.00247948	0.000164462	0.00248492	3.79484	1.73434e-07
35.4653	403.041	27.314	403.966	-3.87699	61.4671	3.33143	-0.000196042	164.298	0.751127	1	12	0.133143	0.000329589	-6.88645e-05	0.00132694	0.00246979	0.000167377	0.00247546	3.87699	-4.96312e-07
31.6296	404.604	28.1002	405.579	-3.97287	62.1915	3.33143	-0.000232033	179.068	0.859578	1	12	0.133146	0.000328287	-6.87411e-05	0.00132694	0.00245969	0.000170828	0.00246561	3.97287	1.23371e-07
28.1701	406.21	28.973	407.242	-4.07973	62.9968	3.33142	-0.000254228	195.002	0.98701	1	12	0.133149	0.000326953	-6.79603e-05	0.0015674	0.00244932	0.000174699	0.00245554	4.07973	7.80806e-07
25.1044	407.891	29.9868	408.991	-4.20464	63.7529	3.33142	-0.000177739	211.417	1.13651	1	12	0.133146	0.000325546	-6.78723e-05	0.00124678	0.00243846	0.000179268	0.00244504	4.20464	8.79946e-08
22.3854	409.63	31.098	410.809	-4.34141	64.4384	3.33142	-0.000159827	228.625	1.31011	1	12	0.133138	0.000324087	-6.88567e-05	0.0015674	0.00242724	0.000184269	0.00243422	4.34141	-9.84332e-07
19.9553	411.514	32.3108	412.781	-4.48947	65.2002	3.33142	-0.000235739	246.84	1.51241	1	12	0.13314	0.000322545	-6.90118e-05	0.0015674	0.00241516	0.00018963	0.00242259	4.48947	-1.55174e-07
17.7961	413.427	33.6372	414.793	-4.65145	66.0445	3.33142	-0.000278358	265.873	1.74844	1	12	0.133136	0.00032097	-6.92232e-05	0.00140709	0.0024029	0.000195505	0.00241084	4.65145	-2.11332e-07
15.8576	415.478	35.0179	416.951	-4.8177	66.7669	3.33143	-0.000264021	286.611	2.02164	1	12	0.133139	0.000319316	-6.79023e-05	0.00148724	0.00238989	0.000201428	0.00239836	4.8177	1.32087e-06
14.119	417.622	36.5603	419.219	-5.00315	67.5693	3.33144	-0.000170086	308.324	2.34501	1	12	0.133136	0.000317581	-6.94219e-05	0.00132694	0.0023763	0.000208031	0.00238539	5.00315	-1.51961e-06
12.6008	419.878	38.1916	421.611	-5.19725	68.4598	3.33142	-0.000314937	330.715	2.71372	1	12	0.133141	0.000315792	-6.93933e-05	0.00124678	0.0023621	0.000214854	0.00237185	5.19725	2.85786e-08
11.2249	422.247	39.9488	424.133	-5.40466	69.1439	3.33141	-0.000357454	354.925	3.14876	1	12	0.133131	0.000313889	-6.92118e-05	0.00092617	0.00234727	0.000222075	0.00235775	5.40466	1.81563e-07
10.0032	424.75	41.7894	426.8	-5.61901	69.9047	3.33143	-0.000279085	380.728	3.65004	1	12	0.133136	0.000311939	-6.73412e-05	0.00124678	0.00233176	0.000229412	0.00234302	5.61901	1.87056e-06
8.91838	427.402	43.7498	429.635	-5.84456	70.748	3.33142	-0.000187673	407.904	4.2297	1	12	0.133138	0.000309886	-7.01841e-05	0.00132694	0.00231546	0.000237015	0.00232755	5.84456	-2.84292e-06
7.93953	430.209	45.8902	432.65	-6.08869	71.6867	3.33143	-0.000304622	436.822	4.91442	1	12	0.133134	0.000307717	-6.73296e-05	0.0015674	0.0022983	0.000245159	0.00231134	6.08869	2.85456e-06
7.07654	433.016	48.0723	435.676	-6.3349	72.245	3.33141	-0.000141339	467.847	5.69596	1	12	0.133134	0.000305581	-6.75819e-05	0.00092617	0.00228127	0.000253261	0.00229528	6.3349	-2.52352e-07
6.31058	436.082	50.3094	438.974	-6.58094	72.8652	3.33141	2.188e-05	501.304	6.58448	1	12	0.133142	0.000303302	-6.88311e-05	0.00164755	0.00226303	0.000261078	0.00227804	6.58094	-1.24923e-06
5.6205	439.362	52.8955	442.535	-6.86488	73.5517	3.33141	-9.15869e-05	535.336	7.64835	1	12	0.133131	0.000300838	-7.10019e-05	0.00132694	0.00224351	0.000270099	0.00225971	6.86488	-2.17076e-06
5.01444	442.806	55.2543	446.24	-7.11273	74.3092	3.33143	-0.000324107	574.422	8.80697	1	12	0.133131	0.00029834	-7.20526e-05	0.00108648	0.0022237	0.000277478	0.00224094	7.11273	-1.05069e-06
4.46939	446.208	57.9673	449.958	-7.40188	75.1505	3.33142	-0.00064616	614.312	10.1955	1	12	0.133136	0.000295885	-6.86418e-05	0.0015674	0.00220391	0.000286312	0.00222243	7.40188	3.41078e-06
3.97785	450.216	60.8412	454.308	-7.6962	76.0872	3.33142	-0.000266909	657.619	11.7942	1	12	0.13313	0.000293039	-6.63073e-05	0.00100632	0.00218132	0.000294779	0.00220115	7.6962	2.33453e-06
3.55114	453.949	63.7721	458.406	-7.99675	77.1284	3.33143	-1.96137e-05	702.784	13.6013	1	12	0.133136	0.000290433	-7.19296e-05	0.00132694	0.00216026	0.000303479	0.00218147	7.99675	-5.62228e-06
3.1604	458.318	66.7656	463.155	-8.28829	78.2902	3.33142	-0.000339851	754.268	15.674	1	12	0.133134	0.000287451	-7.14698e-05	0.00132694	0.00213655	0.000311243	0.0021591	8.28829	4.59742e-07
2.81836	462.637	70.1491	467.925	-8.62202	79.5847	3.33143	-0.000285906	805.01	18.0923	1	12	0.133128	0.000284508	-6.51628e-05	0.00132694	0.00211294	0.000320384	0.0021371	8.62202	6.30699e-06
2.51367	467.065	73.4242	472.801	-8.93397	81.0287	3.33144	7.55479e-05	862.327	20.7966	1	12	0.133132	0.000281582	-7.38288e-05	0.00132694	0.00208939	0.000328459	0.00211505	8.93397	-8.66599e-06
2.23982	472.002	76.8786	478.222	-9.25097	82.6433	3.33143	-0.000380446	924.275	23.8865	1	12	0.133134	0.000278395	-6.91608e-05	0.00180785	0.00206388	0.00033616	0.00209108	9.25097	4.668e-06
1.99706	477.133	80.6333	483.899	-9.59209	84.4467	3.33143	-0.000180995	988.358	27.4432	1	12	0.133129	0.000275118	-6.67601e-05	0.00108648	0.00203766	0.000344355	0.00206655	9.59209	2.40073e-06
1.77961	482.392	84.6176	489.757	-9.94918	86.4649	3.33144	-7.72668e-05	1056.9	31.5496	1	12	0.133136	0.000271841	-7.63952e-05	0.00100632	0.00201112	0.000352776	0.00204183	9.94918	-9.63514e-06
1.58469	487.95	88.6	495.928	-10.2914	88.7241	3.33143	-0.000331736	1133.56	36.1803	1	12	0.133132	0.000268449	-6.2466e-05	0.00100632	0.00198398	0.000360243	0.00201642	10.2914	1.39292e-05
1.41224	493.788	92.7442	502.422	-10.6375	91.2531	3.33144	1.98309e-05	1215.14	41.4058	1	12	0.133129	0.000264975	-7.75549e-05	0.0017277	0.00195615	0.000367409	0.00199036	10.6375	-1.50889e-05
1.25967	499.965	97.0476	509.297	-10.985	94.0819	3.33144	-0.000342453	1301.9	47.272	1	12	0.133134	0.000261406	-6.51047e-05	0.00164755	0.00192751	0.000374147	0.00196349	10.985	1.24502e-05
1.12249	506.514	101.682	516.619	-11.3512	97.2501	3.33143	-6.06205e-05	1394.43	54.0184	1	12	0.133128	0.000257691	-7.29223e-05	0.0017277	0.0018978	0.00038098	0.00193566	11.3512	-7.81753e-06
1.00006	513.35	106.551	524.291	-11.7258	100.799	3.33144	-0.000212198	1493.6	61.6885	1	12	0.133131	0.000253925	-7.18733e-05	0.00140709	0.00186753	0.000387625	0.00190734	11.7258	1.04896e-06