File: utils/DE_206_3_30.mpt
EC-Lab ASCII FILE
Nb header lines : 60

Potentio Electrochemical Impedance Spectroscopy

Run on channel : 3 (SN 20921)
User :
CE vs. WE compliance from -10 V to 10 V
Electrode connection : standard
Ewe ctrl range : min = -10.00 V, max = 10.00 V
Acquisition started on : 12/03/2020 16:54:21
Technique started on : 12/03/2020 16:54:22
Saved on :
	File : DE_206_3_30.mpr
	Directory : P:\Chemistry\Data\VMP3\Kyler\DOE\DE_206\
	Host : 10.0.4.64
Device : VMP3 (SN 1432)
Address : USB
EC-Lab for windows v11.33 (software)
Internet server v11.32 (firmware)
Command interpretor v11.33 (firmware)
Electrode material :
Initial state :
Electrolyte :
Comments :
Electrode surface area : 0.001 cm²
Characteristic mass : 0.001 g
Equivalent Weight : 0.000 g/eq.
Density : 0.000 g/cm3
Record Analogic IN 1
Cycle Definition : Charge/Discharge alternance
Mode                Single sine
E (V)               0.0000
vs.                 Eoc
tE (h:m:s)          0:00:0.0000
record              0
dI                  1.000
unit dI             mA
dt (s)              0.000
fi                  1.000
unit fi             MHz
ff                  1.000
unit ff             Hz
Nd                  20
Points              per decade
spacing             Logarithmic
Va (mV)             128.0
pw                  0.50
Na                  3
corr                0
E range min (V)     -10.000
E range max (V)     10.000
I Range             Auto
Bandwidth           5
nc cycles           0
goto Ns'            0
nr cycles           0
inc. cycle          1

freq/Hz	Re(Z)/Ohm	-Im(Z)/Ohm	|Z|/Ohm	Phase(Z)/deg	time/s	<Ewe>/V	<I>/mA	Cs/µF	Cp/µF	cycle number	I Range	|Ewe|/V	|I|/A	(Q-Qo)/mA.h	Analog IN 1/V	Re(Y)/Ohm-1	Im(Y)/Ohm-1	|Y|/Ohm-1	Phase(Y)/deg	dq/mA.h
1.00002e+06	112.952	64.755	130.197	-29.8256	1.94949	3.31078	-0.00233195	0.00245775	0.000607971	1	11	0.00409333	3.14395e-05	-8.24353e-07	-0.000237822	0.00666331	0.00382007	0.00768066	29.8256	-8.24353e-07
891247	117.76	63.1619	133.63	-28.2073	2.54447	3.3112	-0.00164679	0.00282727	0.000631642	1	11	0.00591653	4.42755e-05	-1.06435e-06	-7.74882e-05	0.00659466	0.00353711	0.00748336	28.2073	-2.39995e-07
794333	123.463	62.2529	138.27	-26.7584	3.14048	3.31156	-0.00123692	0.00321853	0.000652416	1	11	0.00840938	6.08187e-05	-1.23648e-06	-0.000317989	0.00645777	0.00325617	0.00723225	26.7584	-1.72134e-07
707950	129.652	61.682	143.577	-25.4427	3.73649	3.31188	-0.000891175	0.00364468	0.000672675	1	11	0.0116282	8.09891e-05	-1.31461e-06	2.67859e-06	0.00628941	0.00299218	0.00696489	25.4427	-7.81314e-08
630957	135.616	61.3163	148.833	-24.3293	4.33147	3.31214	-0.00062464	0.00411381	0.000698229	1	11	0.0155946	0.000104779	-1.18563e-06	-0.000237822	0.00612225	0.00276807	0.00671894	24.3293	1.28988e-07
562342	141.414	61.0018	154.01	-23.3339	4.92649	3.31236	-0.000380472	0.00463956	0.000727886	1	11	0.0203113	0.000131883	-1.17022e-06	8.28454e-05	0.00596202	0.00257184	0.00649308	23.3339	1.5402e-08
501206	147.072	60.6087	159.071	-22.3966	5.52349	3.31253	-0.000261369	0.00523925	0.000760598	1	11	0.0258032	0.000162211	-1.27921e-06	-7.74882e-05	0.00581229	0.00239525	0.00628649	22.3966	-1.08981e-07
446686	152.521	60.0209	163.906	-21.4809	6.11847	3.31265	-0.000246644	0.0059363	0.000796036	1	11	0.0320684	0.000195652	-1.16948e-06	-0.000157655	0.00567729	0.00223416	0.00610107	21.4809	1.09728e-07
398103	157.671	59.3454	168.469	-20.6258	6.71347	3.3127	-0.000132015	0.00673654	0.000835929	1	11	0.0391575	0.000232431	-1.27289e-06	8.28454e-05	0.00555532	0.00209096	0.0059358	20.6258	-1.03412e-07
354810	162.696	58.4943	172.892	-19.7751	7.30849	3.31272	-0.000225767	0.00766851	0.000877785	1	11	0.0471545	0.00027274	-1.47168e-06	2.67859e-06	0.00544287	0.00195688	0.00578396	19.7751	-1.98786e-07
316230	167.437	57.5415	177.048	-18.9659	7.9035	3.31273	-0.000154938	0.00874653	0.000923882	1	11	0.0561356	0.000317064	-1.33317e-06	-7.74882e-05	0.00534156	0.00183569	0.00564818	18.9659	1.38501e-07
281835	171.96	56.5058	181.006	-18.1905	8.4995	3.31275	-0.000199295	0.00999385	0.000973945	1	11	0.0661721	0.00036558	-1.76155e-06	-0.000157655	0.00524859	0.00172468	0.00552469	18.1905	-4.28373e-07
251188	176.291	55.4061	184.793	-17.4473	9.09448	3.31272	-0.000250738	0.0114357	0.00102804	1	11	0.0773452	0.000418551	-2.18422e-06	0.000163012	0.0051625	0.00162251	0.00541146	17.4473	-4.2267e-07
223872	180.431	54.3066	188.427	-16.7508	9.68949	3.31274	-0.000279067	0.0130909	0.0010874	1	11	0.0896548	0.000475807	-2.49597e-06	8.28454e-05	0.0050819	0.00152956	0.0053071	16.7508	-3.1175e-07
199544	184.371	53.1921	191.891	-16.0932	10.2865	3.31276	-0.000164997	0.0149946	0.00115219	1	11	0.103087	0.000537216	-2.53708e-06	0.000323346	0.00500708	0.00144457	0.0052113	16.0932	-4.11152e-08
177832	188.122	52.1208	195.209	-15.4858	10.7455	3.31276	-0.000222218	0.0171712	0.00122411	1	11	0.117613	0.000602499	-2.17956e-06	-7.74882e-05	0.00493674	0.00136776	0.00512271	15.4858	3.57518e-07
158486	191.74	51.1198	198.437	-14.9284	11.2055	3.31279	-0.000127714	0.0196444	0.00130368	1	11	0.133239	0.00067144	-2.5736e-06	-7.74882e-05	0.00486929	0.0012982	0.00503938	14.9284	-3.94031e-07
141256	195.254	50.1512	201.592	-14.4051	11.8025	3.31286	-7.94421e-05	0.0224663	0.00139043	1	11	0.129724	0.000643499	-2.21983e-06	-7.74882e-05	0.00480456	0.00123405	0.00496051	14.4051	3.53765e-07
125909	198.602	49.264	204.621	-13.9312	12.3995	3.31291	-8.317e-05	0.0256586	0.00148728	1	11	0.129689	0.000633802	-2.57136e-06	-0.000317989	0.00474333	0.0011766	0.00488709	13.9312	-3.51531e-07
112205	201.849	48.4624	207.585	-13.5007	12.9945	3.31296	-3.58471e-06	0.0292687	0.00159522	1	11	0.12971	0.000624851	-2.84505e-06	-0.000317989	0.00468418	0.00112464	0.0048173	13.5007	-2.73691e-07
100004	205.013	47.7392	210.498	-13.1083	13.5895	3.31296	-4.72e-05	0.0333372	0.00171469	1	11	0.129821	0.000616735	-3.40424e-06	-7.74882e-05	0.00462686	0.00107741	0.00475065	13.1083	-5.59185e-07
89129.3	208.057	47.0977	213.321	-12.755	14.1855	3.313	-3.56437e-05	0.037914	0.00184813	1	11	0.129462	0.00060689	-2.39263e-06	0.000163012	0.00457209	0.00103498	0.00468777	12.755	1.01161e-06
79433.3	211.017	46.5577	216.092	-12.4421	14.7805	3.31302	-8.05828e-06	0.0430355	0.00199771	1	11	0.129458	0.000599086	-2.8597e-06	-7.74882e-05	0.00451898	0.000997044	0.00462766	12.4421	-4.67071e-07
70795	213.899	46.1734	218.826	-12.1813	15.3765	3.31303	-3.39663e-05	0.0486885	0.00216776	1	11	0.129423	0.000591444	-1.83707e-06	-0.000157655	0.00446695	0.00096426	0.00456984	12.1813	1.02263e-06
63093.8	216.724	45.8637	221.524	-11.9488	15.8365	3.31304	8.7185e-06	0.0550002	0.00235756	1	11	0.14075	0.000635374	-2.27961e-06	-0.000398155	0.00441638	0.000934607	0.00451419	11.9488	-4.42542e-07
56237	219.512	45.7189	224.223	-11.7651	16.4315	3.31307	-5.5774e-05	0.0619016	0.00257356	1	11	0.130394	0.000581537	-3.41384e-06	0.000243179	0.00436616	0.000909361	0.00445985	11.7651	-1.13423e-06
50122.5	222.242	45.7027	226.892	-11.6205	16.8905	3.31308	4.91625e-05	0.0694778	0.00281897	1	11	0.139967	0.000616889	-2.90735e-06	0.000323346	0.00431704	0.000887773	0.00440738	11.6205	5.06489e-07
44666.7	224.962	45.8428	229.585	-11.5181	17.4855	3.31311	2.51187e-05	0.0777257	0.00309899	1	11	0.130066	0.000566524	-3.5962e-06	0.000163012	0.00426797	0.000869728	0.00435568	11.5181	-6.88857e-07
39814.1	227.67	46.1454	232.299	-11.4578	17.9445	3.3131	4.84165e-05	0.0866273	0.00341835	1	11	0.137641	0.000592517	-3.30094e-06	2.67859e-06	0.004219	0.000855131	0.00430479	11.4578	2.95262e-07
35481	230.381	46.591	235.045	-11.433	18.5415	3.31313	4.61799e-05	0.096277	0.00378291	1	11	0.129746	0.000552005	-2.60139e-06	0.000163012	0.00417009	0.000843337	0.00425451	11.433	6.99553e-07
31621.1	233.122	47.2094	237.854	-11.4481	19.0005	3.31312	4.45027e-05	0.106614	0.00420001	1	11	0.135399	0.000569254	-2.82727e-06	-7.74882e-05	0.00412062	0.000834465	0.00420426	11.4481	-2.25885e-07
28188.1	235.91	47.9987	240.743	-11.5005	19.4595	3.3131	3.25742e-05	0.117632	0.00467601	1	11	0.140388	0.000583145	-3.26041e-06	-0.000398155	0.0040704	0.000828172	0.0041538	11.5005	-4.33133e-07
25116.9	238.753	48.9574	243.72	-11.5881	20.0555	3.31313	3.31323e-05	0.12943	0.00522262	1	11	0.129654	0.000531977	-2.56476e-06	-0.000237822	0.00401943	0.000824203	0.00410306	11.5881	6.95648e-07
22389	241.661	50.0736	246.794	-11.7064	20.5145	3.31312	2.32538e-05	0.141963	0.0058442	1	11	0.132931	0.000538631	-2.51468e-06	-0.000157655	0.00396768	0.000822129	0.00405196	11.7064	5.00799e-08
19948.8	244.675	51.3795	250.011	-11.8593	20.9745	3.31312	3.35056e-05	0.155279	0.00655804	1	11	0.135674	0.000542671	-2.89304e-06	-0.000237822	0.00391444	0.000821997	0.00399982	11.8593	-3.78361e-07
17786.9	247.774	52.8534	253.348	-12.0415	21.4345	3.31312	1.48662e-05	0.169296	0.00736812	1	11	0.137916	0.000544373	-3.18802e-06	0.000243179	0.00386029	0.00082345	0.00394713	12.0415	-2.9498e-07
15847.7	251.019	54.4722	256.861	-12.2436	21.8935	3.31313	3.92834e-05	0.184365	0.0082915	1	11	0.139741	0.000544034	-3.6562e-06	2.67859e-06	0.00380461	0.000825617	0.00389316	12.2436	-4.6818e-07
14121.9	254.452	56.2737	260.6	-12.4706	22.4885	3.31313	-4.88796e-05	0.200273	0.00933865	1	11	0.129316	0.000496223	-4.00393e-06	8.28454e-05	0.00374676	0.000828622	0.0038373	12.4706	-3.47734e-07
12590.9	257.977	58.2437	264.47	-12.7224	22.9475	3.31313	-3.69504e-05	0.217027	0.0105259	1	11	0.130357	0.0004929	-4.13494e-06	2.67859e-06	0.00368831	0.000832713	0.00378114	12.7224	-1.31002e-07
11217.7	261.74	60.3599	268.61	-12.9859	23.4065	3.31312	-6.73307e-05	0.235054	0.0118692	1	11	0.13117	0.00048833	-3.64397e-06	-0.000398155	0.00362766	0.000836574	0.00372287	12.9859	4.90969e-07
10002.2	265.655	62.6347	272.939	-13.2666	23.8665	3.31313	9.08842e-06	0.254044	0.0133785	1	11	0.131784	0.000482833	-3.15388e-06	2.67859e-06	0.00356605	0.000840783	0.00366382	13.2666	4.90081e-07
8914.93	269.843	65.0391	277.57	-13.5513	24.3489	3.31315	1.18843e-05	0.274491	0.0150706	1	11	0.132277	0.000476554	-3.3287e-06	0.000323346	0.0035024	0.000844169	0.0036027	13.5513	-1.74818e-07
7944	274.233	67.5466	282.429	-13.8372	24.875	3.31316	1.95255e-05	0.296604	0.0169655	1	11	0.132617	0.000469559	-3.27897e-06	-7.74882e-05	0.00343796	0.000846809	0.00354072	13.8372	4.97302e-08
7082.23	278.891	70.2452	287.602	-14.1372	25.4519	3.31316	-4.89112e-06	0.319914	0.0190846	1	11	0.132882	0.000462035	-2.92292e-06	0.000163012	0.00337172	0.000849247	0.00347703	14.1372	3.5605e-07
6307.73	283.853	73.0068	293.092	-14.4238	26.0866	3.31317	-0.000170217	0.345608	0.0214439	1	11	0.133073	0.000454031	-3.35717e-06	0.000483679	0.00330436	0.000849878	0.0034119	14.4238	-4.34247e-07
5621.06	289.118	75.8862	298.912	-14.7069	26.7873	3.31318	-0.000137413	0.373112	0.024048	1	11	0.133202	0.000445623	-3.2885e-06	2.67859e-06	0.00323586	0.000849332	0.00334547	14.7069	6.86692e-08
5011.6	294.657	78.7832	305.008	-14.9692	27.5477	3.31316	-0.000153629	0.403097	0.026894	1	11	0.133284	0.000436985	-3.08582e-06	-0.000157655	0.00316735	0.000846862	0.00327861	14.9692	2.0268e-07
4466.43	300.529	81.7566	311.451	-15.2186	28.3067	3.31318	-0.000112251	0.43585	0.0300334	1	11	0.133329	0.00042809	-3.08762e-06	0.000403512	0.00309818	0.000842838	0.00321078	15.2186	-1.79658e-09
3981.27	306.756	84.7061	318.237	-15.4367	29.0667	3.31319	-0.000122875	0.471936	0.0334359	1	11	0.13336	0.000419059	-2.84086e-06	-0.000478322	0.00302896	0.000836401	0.00314232	15.4367	2.46762e-07
3546.6	313.4	87.6881	325.436	-15.6314	29.8269	3.31318	-0.00019128	0.511762	0.037155	1	11	0.133361	0.000409792	-2.54192e-06	2.67859e-06	0.00295915	0.000827959	0.0030728	15.6314	2.98934e-07
3161.01	320.367	90.6326	332.94	-15.7963	30.5867	3.31317	-0.000155307	0.555533	0.0411667	1	11	0.133355	0.000400539	-2.28416e-06	-7.74882e-05	0.00289012	0.000817621	0.00300354	15.7963	2.5776e-07
2817.3	327.714	93.3994	340.764	-15.9077	31.347	3.31317	-0.000182892	0.604844	0.0454385	1	11	0.133342	0.000391302	-2.26177e-06	-0.000718822	0.0028222	0.000804334	0.00293458	15.9077	2.2394e-08
2510.8	335.479	96.0396	348.955	-15.9751	32.1067	3.31319	-0.000166677	0.66002	0.049994	1	11	0.133324	0.000382067	-2.51633e-06	0.000243179	0.00275503	0.000788697	0.0028657	15.9751	-2.54558e-07
2237.85	343.572	98.5235	357.42	-16.0009	32.8669	3.31317	-0.000189976	0.721854	0.0548493	1	11	0.133306	0.000372966	-2.82001e-06	2.67859e-06	0.00268944	0.000771228	0.00279783	16.0009	-3.03682e-07
1995.64	352.061	100.7	366.18	-15.9622	33.8777	3.31317	-0.000129953	0.791966	0.0598936	1	12	0.135517	0.000370083	-2.76428e-06	0.000243179	0.0026256	0.000751004	0.0027309	15.9622	5.57269e-08
1778.29	360.885	102.566	375.177	-15.8655	34.6369	3.31317	-0.000166216	0.872599	0.0652148	1	12	0.135294	0.000360613	-2.84441e-06	0.000243179	0.00256387	0.000728667	0.00266541	15.8655	-8.01294e-08
1585.51	369.984	104.094	384.349	-15.7138	35.3967	3.31316	-0.000178913	0.964328	0.0707339	1	12	0.135063	0.000351406	-3.16958e-06	0.000483679	0.00250456	0.000704653	0.0026018	15.7138	-3.2517e-07
1411.84	379.404	105.204	393.72	-15.498	36.1582	3.31317	-0.000156018	1.07153	0.0765057	1	12	0.134831	0.000342456	-3.31254e-06	2.67859e-06	0.00244753	0.00067867	0.00253988	15.498	-1.42963e-07
1258.79	388.948	105.816	403.085	-15.2193	36.918	3.31316	-0.000188235	1.19486	0.0823423	1	12	0.134619	0.000333972	-3.66794e-06	2.67859e-06	0.00239385	0.000651264	0.00248086	15.2193	-3.55396e-07
1121.79	398.627	105.897	412.453	-14.8772	37.6764	3.31316	-0.000161519	1.33975	0.0883163	1	12	0.134415	0.000325892	-3.48943e-06	8.28454e-05	0.00234324	0.000622492	0.00242452	14.8772	1.78509e-07
1000.32	408.272	105.465	421.674	-14.484	38.4357	3.31316	-0.000187117	1.5086	0.0943704	1	12	0.134229	0.000318324	-3.58821e-06	-7.74882e-05	0.00229613	0.000593137	0.0023715	14.484	-9.87746e-08
891.427	417.906	104.503	430.774	-14.0397	39.1944	3.31317	-0.000130085	1.70846	0.100546	1	12	0.134058	0.000311202	-3.69669e-06	0.000403512	0.00225206	0.000563158	0.0023214	14.0397	-1.08488e-07
794.238	427.414	102.974	439.644	-13.5458	39.9539	3.31316	-0.000202088	1.94599	0.106757	1	12	0.133909	0.000304586	-3.60084e-06	0.000163012	0.0022113	0.000532754	0.00227457	13.5458	9.58548e-08
707.509	436.691	100.905	448.197	-13.0109	40.7165	3.31316	-0.000154919	2.22933	0.112996	1	12	0.133776	0.000298476	-3.82251e-06	2.67859e-06	0.00217388	0.000502314	0.00223116	13.0109	-2.21672e-07
631.01	445.537	98.4083	456.275	-12.4553	41.4744	3.31317	-0.000147201	2.56302	0.119224	1	12	0.133663	0.000292944	-4.02949e-06	0.000243179	0.00214008	0.000472692	0.00219166	12.4553	-2.06983e-07
562.339	454.036	95.4477	463.96	-11.8719	42.2309	3.31316	-0.000158238	2.96522	0.125495	1	12	0.133565	0.000287879	-4.29082e-06	-7.74882e-05	0.00210925	0.000443408	0.00215536	11.8719	-2.61325e-07
501.444	461.994	92.199	471.104	-11.2861	42.9882	3.31317	-0.000143789	3.44248	0.131853	1	12	0.133477	0.000283328	-4.26892e-06	-0.000157655	0.00208162	0.000415425	0.00212267	11.2861	2.18974e-08
446.859	469.563	88.6371	477.856	-10.6897	43.7449	3.31317	-0.000148469	4.01823	0.138252	1	12	0.133411	0.000279188	-4.45493e-06	2.67859e-06	0.00205637	0.00038817	0.00209268	10.6897	-1.86012e-07
398.089	476.52	84.8905	484.022	-10.1011	44.5077	3.31316	-0.000169108	4.70956	0.144866	1	12	0.133348	0.000275501	-4.38726e-06	-0.000398155	0.002034	0.00036235	0.00206602	10.1011	6.76775e-08
354.66	482.999	81.0824	489.758	-9.52954	45.2679	3.31317	-0.000183594	5.53455	0.151695	1	12	0.1333	0.000272176	-4.60306e-06	8.28454e-05	0.00201365	0.000338037	0.00204183	9.52954	-2.158e-07
316.316	488.821	77.2333	494.884	-8.97848	46.0249	3.31317	-0.000154659	6.5147	0.158671	1	12	0.133253	0.00026926	-4.3767e-06	-0.000157655	0.00199591	0.000315353	0.00202067	8.97848	2.26353e-07
281.894	494.174	73.4416	499.601	-8.45314	46.7804	3.31316	-0.000137824	7.68761	0.166123	1	12	0.133215	0.000266643	-4.6169e-06	0.000323346	0.00197985	0.000294236	0.0020016	8.45314	-2.40202e-07
251.044	499.095	69.7497	503.945	-7.9557	47.5369	3.31316	-0.000150036	9.08923	0.174119	1	12	0.133185	0.000264285	-4.53697e-06	0.000403512	0.00196525	0.000274648	0.00198434	7.9557	7.99302e-08
223.925	503.531	66.2858	507.875	-7.49942	48.2997	3.31315	-0.000152683	10.7225	0.182652	1	12	0.133164	0.000262198	-4.43555e-06	0.000243179	0.00195215	0.000256985	0.00196899	7.49942	1.01426e-07
199.553	507.563	62.9635	511.453	-7.07145	49.0602	3.31316	-0.00012276	12.667	0.191972	1	12	0.133139	0.000260316	-4.19516e-06	-0.000237822	0.00194034	0.000240701	0.00195521	7.07145	2.40385e-07
177.781	511.231	59.8979	514.728	-6.68253	49.8272	3.31316	-7.28498e-05	14.9459	0.20239	1	12	0.133123	0.000258628	-4.36799e-06	0.000243179	0.00192957	0.000226076	0.00194277	6.68253	-1.72825e-07
158.428	514.63	57.0725	517.785	-6.32824	50.5937	3.31316	-0.000130553	17.6019	0.213853	1	12	0.133107	0.00025707	-4.21334e-06	0.000163012	0.00191953	0.000212876	0.0019313	6.32824	1.54645e-07
141.311	517.757	54.5424	520.622	-6.01357	51.3469	3.31316	-0.000128335	20.6495	0.226638	1	12	0.133099	0.000255654	-4.39563e-06	-0.000157655	0.00191021	0.000201229	0.00192078	6.01357	-1.82286e-07
125.846	520.641	52.2403	523.255	-5.72979	52.1024	3.31316	-0.00013872	24.209	0.241301	1	12	0.133088	0.000254346	-4.31061e-06	0.000243179	0.00190156	0.0001908	0.00191111	5.72979	8.50223e-08
112.19	523.331	50.2308	525.736	-5.48262	52.8478	3.31316	-0.000143232	28.242	0.25781	1	12	0.133079	0.000253129	-4.26518e-06	0.000163012	0.00189339	0.000181733	0.00190209	5.48262	4.54258e-08
100.032	525.833	48.5272	528.067	-5.27269	53.6077	3.31316	-7.22353e-05	32.7865	0.276878	1	12	0.133065	0.000251985	-4.43554e-06	0.000163012	0.00188569	0.000174023	0.0018937	5.27269	-1.70354e-07
89.116	528.321	47.0867	530.415	-5.09304	54.3747	3.31316	-0.000113271	37.9285	0.298903	1	12	0.133068	0.000250875	-4.63829e-06	2.67859e-06	0.00187787	0.000167366	0.00188531	5.09304	-2.02754e-07
79.4155	530.674	45.8514	532.652	-4.93821	55.1392	3.31317	-0.000138012	43.7081	0.323877	1	12	0.13306	0.000249807	-4.43787e-06	8.28454e-05	0.00187043	0.000161609	0.0018774	4.93821	2.00421e-07
70.8387	532.915	44.9675	534.808	-4.82321	55.8904	3.31316	-0.000125745	49.9633	0.353225	1	12	0.133056	0.000248793	-4.52211e-06	-0.000157655	0.00186321	0.000157218	0.00186983	4.82321	-8.42408e-08
63.0823	535.179	44.2188	537.002	-4.7233	56.6708	3.31317	-0.00011784	57.0566	0.386872	1	12	0.133055	0.000247774	-4.67385e-06	0.000403512	0.00185587	0.00015334	0.00186219	4.7233	-1.51737e-07
56.2418	537.435	43.8119	539.217	-4.66048	57.4144	3.31317	-0.000131338	64.5904	0.426408	1	12	0.133051	0.000246748	-4.60917e-06	8.28454e-05	0.00184841	0.000150683	0.00185454	4.66048	6.46783e-08
50.1444	539.575	43.5588	541.331	-4.61536	58.1712	3.31316	-0.00012567	72.8654	0.47179	1	12	0.133049	0.000245781	-4.54359e-06	8.28454e-05	0.00184131	0.000148645	0.0018473	4.61536	6.55837e-08
44.6712	541.752	43.5917	543.503	-4.60036	58.9352	3.31317	-8.94449e-05	81.7313	0.525766	1	12	0.133048	0.000244797	-4.68922e-06	2.67859e-06	0.00183399	0.000147571	0.00183992	4.60036	-1.45633e-07
39.8089	544.02	43.8419	545.784	-4.60744	59.6977	3.31317	-0.000128821	91.1906	0.58842	1	12	0.133045	0.000243768	-4.47816e-06	-7.74882e-05	0.00182631	0.00014718	0.00183223	4.60744	2.11054e-07
35.4653	546.294	44.2699	548.085	-4.63294	60.4481	3.31317	-5.60531e-05	101.37	0.661346	1	12	0.133042	0.00024274	-4.92729e-06	-7.74882e-05	0.00181857	0.000147371	0.00182453	4.63294	-4.49121e-07
31.6296	548.618	44.9332	550.455	-4.68222	61.1724	3.31316	-8.67035e-05	111.985	0.746192	1	12	0.133043	0.000241696	-4.90398e-06	-0.000317989	0.00181062	0.000148294	0.00181668	4.68222	2.33005e-08
28.1701	550.984	45.8155	552.885	-4.75333	61.9778	3.31316	-0.000101302	123.316	0.846788	1	12	0.133039	0.000240626	-4.26599e-06	2.67859e-06	0.00180247	0.00014988	0.00180869	4.75333	6.37993e-07
25.1044	553.487	46.9059	555.471	-4.84403	62.7339	3.31317	-8.92389e-05	135.158	0.963773	1	12	0.133038	0.000239504	-4.14215e-06	8.28454e-05	0.00179385	0.000152022	0.00180028	4.84403	1.23838e-07
22.3854	556.083	48.2126	558.17	-4.95516	63.4204	3.31316	-5.83643e-05	147.467	1.10023	1	12	0.133041	0.000238353	-4.91502e-06	0.000163012	0.00178487	0.000154749	0.00179157	4.95516	-7.72869e-07
19.9553	558.706	49.6648	560.909	-5.07982	64.1822	3.31316	-0.000114408	160.588	1.259	1	12	0.133041	0.000237189	-4.83143e-06	0.000243179	0.00177582	0.000157857	0.00178282	5.07982	8.35969e-08
17.7961	561.484	51.3625	563.828	-5.22666	65.0265	3.31316	-0.000125576	174.12	1.44493	1	12	0.133036	0.000235952	-4.9833e-06	0.000163012	0.00176622	0.000161567	0.00177359	5.22666	-1.51873e-07
15.8576	564.416	53.2875	566.926	-5.39341	65.7489	3.31316	-7.62253e-05	188.347	1.66401	1	12	0.133035	0.00023466	-4.39533e-06	0.000243179	0.00175609	0.000165796	0.0017639	5.39341	5.8797e-07
14.119	567.491	55.3905	570.188	-5.57475	66.5513	3.31317	-3.72222e-05	203.508	1.92051	1	12	0.133033	0.000233315	-5.40048e-06	0.000483679	0.00174551	0.000170372	0.00175381	5.57475	-1.00515e-06
12.6008	570.69	57.697	573.599	-5.77301	67.4419	3.31317	-0.000142803	218.912	2.21492	1	12	0.133039	0.000231937	-4.99837e-06	-7.74882e-05	0.00173454	0.000175362	0.00174338	5.77301	4.02107e-07
11.2249	574.114	60.2308	577.265	-5.98903	68.1259	3.31315	-0.000112898	235.408	2.56275	1	12	0.133035	0.000230457	-5.52103e-06	8.28454e-05	0.00172285	0.000180746	0.00173231	5.98903	-5.22659e-07
10.0032	577.688	62.9759	581.111	-6.22145	68.8867	3.31317	-9.86544e-05	252.643	2.96713	1	12	0.133039	0.000228938	-3.71891e-06	0.000323346	0.00171071	0.00018649	0.00172084	6.22145	1.80212e-06
8.91838	581.485	65.9879	585.217	-6.47433	69.731	3.31316	-3.44815e-05	270.439	3.43846	1	12	0.133034	0.000227324	-5.88922e-06	0.000243179	0.00169787	0.000192677	0.00170877	6.47433	-2.17031e-06
7.93953	585.516	69.2297	589.595	-6.74317	70.6697	3.31316	-0.00012979	289.556	3.99218	1	12	0.133035	0.000225638	-3.55288e-06	-0.000317989	0.00168435	0.000199152	0.00169608	6.74317	2.33635e-06
7.07654	589.609	72.6103	594.063	-7.02062	71.228	3.31314	2.4172e-05	309.743	4.62734	1	12	0.133034	0.00022394	-3.54954e-06	0.000163012	0.0016707	0.000205747	0.00168332	7.02062	3.33323e-09
6.31058	594.008	76.146	598.869	-7.30492	71.8482	3.31315	0.000180036	331.21	5.35469	1	12	0.133043	0.000222158	-4.03981e-06	-0.000237822	0.00165626	0.000212317	0.00166982	7.30492	-4.90264e-07
5.6205	598.717	80.2666	604.074	-7.63579	72.5347	3.31316	0.000176121	352.785	6.22874	1	12	0.133032	0.000220225	-5.53424e-06	0.000243179	0.00164075	0.000219966	0.00165543	7.63579	-1.49443e-06
5.01444	603.87	84.2587	609.72	-7.94327	73.2922	3.31318	1.59202e-07	376.689	7.19369	1	12	0.133024	0.000218172	-7.2213e-06	0.000483679	0.00162436	0.000226649	0.0016401	7.94327	-1.68706e-06
4.46939	608.94	88.4691	615.333	-8.26631	74.1335	3.31316	-0.000199481	402.513	8.32037	1	12	0.133037	0.000216203	-5.70329e-06	-0.000317989	0.00160825	0.000233653	0.00162514	8.26631	1.51801e-06
3.97785	614.772	93.3497	621.819	-8.63409	75.0702	3.31315	-0.000120869	428.606	9.65953	1	12	0.133035	0.000213944	-2.66609e-06	0.000243179	0.00158996	0.000241426	0.00160818	8.63409	3.0372e-06
3.55114	620.498	97.9357	628.179	-8.96923	76.1114	3.31317	0.000159174	457.627	11.1231	1	12	0.133035	0.000211778	-5.6355e-06	2.67859e-06	0.00157244	0.000248184	0.0015919	8.96923	-2.96942e-06
3.1604	627.089	103.256	635.534	-9.35042	77.2742	3.31317	-1.34231e-05	487.71	12.8742	1	12	0.133035	0.000209327	-7.66626e-06	-7.74882e-05	0.00155257	0.000255647	0.00157348	9.35042	-2.03075e-06
2.81836	633.506	108.684	642.761	-9.73488	78.5697	3.31317	-9.20985e-05	519.586	14.8556	1	12	0.133035	0.000206974	-2.00445e-06	0.000163012	0.00153339	0.000263067	0.00155579	9.73488	5.6618e-06
2.51367	640.528	114.073	650.607	-10.098	80.0137	3.31318	0.000146259	555.046	17.063	1	12	0.133033	0.000204476	-6.50157e-06	0.000403512	0.00151322	0.000269492	0.00153703	10.098	-4.49712e-06
2.23982	648.159	119.991	659.172	-10.4882	81.6283	3.31318	-9.63381e-05	592.184	19.6227	1	12	0.133033	0.000201818	-6.67745e-06	0.000243179	0.00149171	0.000276155	0.00151706	10.4882	-1.75879e-07
1.99706	655.99	126.449	668.066	-10.9105	83.4317	3.31318	-2.12446e-05	630.253	22.579	1	12	0.133033	0.000199132	-1.10993e-06	8.28454e-05	0.0014698	0.000283319	0.00149686	10.9105	5.56752e-06
1.77961	664.138	132.851	677.295	-11.3119	85.4499	3.31318	0.000139987	673.179	25.9002	1	12	0.133031	0.000196415	-1.00562e-05	0.000323346	0.00144778	0.000289607	0.00147646	11.3119	-8.94622e-06
1.58469	673.016	139.548	687.331	-11.7141	87.709	3.31318	-6.19017e-05	719.703	29.6667	1	12	0.133035	0.000193553	-4.40752e-07	0.000403512	0.0014246	0.000295387	0.0014549	11.7141	9.6154e-06
1.41224	682.389	146.555	697.949	-12.1212	90.2382	3.31318	0.000159173	768.972	33.9052	1	12	0.133034	0.000190607	-7.8983e-06	0.000243179	0.00140083	0.000300853	0.00143277	12.1212	-7.45754e-06
1.25967	692.224	153.969	709.14	-12.54	93.0669	3.31319	6.00871e-07	820.594	38.6839	1	12	0.133036	0.000187602	-4.37025e-06	0.000163012	0.00137652	0.000306174	0.00141016	12.54	3.52805e-06
1.12249	702.563	161.706	720.933	-12.9618	96.2351	3.31318	0.000106488	876.827	44.1139	1	12	0.133034	0.00018453	-2.74495e-06	0.000563846	0.00135175	0.000311126	0.00138709	12.9618	1.6253e-06
1.00006	713.444	169.917	733.4	-13.3963	99.7832	3.31318	8.23073e-05	936.601	50.2746	1	12	0.133034	0.000181394	-9.54796e-06	8.28454e-05	0.00132641	0.000315905	0.00136351	13.3963	-6.80301e-06