File: utils/DE_206_2_30.mpt
EC-Lab ASCII FILE
Nb header lines : 60

Potentio Electrochemical Impedance Spectroscopy

Run on channel : 2 (SN 20919)
User :
CE vs. WE compliance from -10 V to 10 V
Electrode connection : standard
Ewe ctrl range : min = -10.00 V, max = 10.00 V
Acquisition started on : 12/03/2020 16:54:32
Technique started on : 12/03/2020 16:54:33
Saved on :
	File : DE_206_2_30.mpr
	Directory : P:\Chemistry\Data\VMP3\Kyler\DOE\DE_206\
	Host : 10.0.4.64
Device : VMP3 (SN 1432)
Address : USB
EC-Lab for windows v11.33 (software)
Internet server v11.32 (firmware)
Command interpretor v11.33 (firmware)
Electrode material :
Initial state :
Electrolyte :
Comments :
Electrode surface area : 0.001 cm²
Characteristic mass : 0.001 g
Equivalent Weight : 0.000 g/eq.
Density : 0.000 g/cm3
Record Analogic IN 1
Cycle Definition : Charge/Discharge alternance
Mode                Single sine
E (V)               0.0000
vs.                 Eoc
tE (h:m:s)          0:00:0.0000
record              0
dI                  1.000
unit dI             mA
dt (s)              0.000
fi                  1.000
unit fi             MHz
ff                  1.000
unit ff             Hz
Nd                  20
Points              per decade
spacing             Logarithmic
Va (mV)             128.0
pw                  0.50
Na                  3
corr                0
E range min (V)     -10.000
E range max (V)     10.000
I Range             Auto
Bandwidth           5
nc cycles           0
goto Ns'            0
nr cycles           0
inc. cycle          1

freq/Hz	Re(Z)/Ohm	-Im(Z)/Ohm	|Z|/Ohm	Phase(Z)/deg	time/s	<Ewe>/V	<I>/mA	Cs/µF	Cp/µF	cycle number	I Range	|Ewe|/V	|I|/A	(Q-Qo)/mA.h	Analog IN 1/V	Re(Y)/Ohm-1	Im(Y)/Ohm-1	|Y|/Ohm-1	Phase(Y)/deg	dq/mA.h
1.00002e+06	123.064	79.5043	146.512	-32.8641	1.9495	3.30793	-0.00260698	0.0020018	0.000589464	1	11	0.0018413	1.25676e-05	-7.21492e-07	2.39641e-05	0.00573305	0.00370378	0.00682539	32.8641	-7.21492e-07
891247	129.302	78.2291	151.125	-31.1744	2.54448	3.30837	-0.00199536	0.00228273	0.000611671	1	11	0.00327687	2.16831e-05	-1.1365e-06	-5.62167e-05	0.00566151	0.00342528	0.00661704	31.1744	-4.15007e-07
794333	136.653	78.0999	157.397	-29.7488	3.14047	3.30875	-0.00159783	0.00256547	0.000631651	1	11	0.00543554	3.4534e-05	-1.48292e-06	-0.000216578	0.00551606	0.00315253	0.00635338	29.7488	-3.46418e-07
707950	144.36	78.3115	164.233	-28.4786	3.73649	3.30905	-0.00143317	0.00287073	0.000652709	1	11	0.00842787	5.13164e-05	-1.59655e-06	0.000104145	0.00535211	0.00290337	0.00608889	28.4786	-1.13629e-07
630957	151.967	78.8314	171.197	-27.4176	4.3315	3.30931	-0.00117744	0.00319979	0.000678468	1	11	0.0123344	7.20479e-05	-1.8603e-06	0.000344687	0.00518511	0.00268973	0.00584124	27.4176	-2.63753e-07
562342	159.753	79.0749	178.252	-26.3346	4.92749	3.30951	-0.00109883	0.00357916	0.000704351	1	11	0.0172052	9.65215e-05	-2.13057e-06	0.000184326	0.00502782	0.00248868	0.00561003	26.3346	-2.70267e-07
501206	167.257	79.2228	185.07	-25.345	5.52349	3.30968	-0.000977842	0.00400824	0.00073448	1	11	0.0230409	0.000124498	-2.48386e-06	0.000344687	0.00488326	0.002313	0.00540335	25.345	-3.53296e-07
446686	174.603	79.0766	191.675	-24.3655	6.11849	3.30981	-0.00095368	0.00450578	0.000766893	1	11	0.0298436	0.000155699	-2.57622e-06	0.000104145	0.00475249	0.00215237	0.00521717	24.3655	-9.23554e-08
398103	181.697	78.5798	197.961	-23.3874	6.71347	3.30986	-0.00090759	0.00508761	0.000801636	1	11	0.0376009	0.000189941	-2.71907e-06	2.39641e-05	0.00463649	0.00200518	0.00505151	23.3874	-1.42851e-07
354810	188.81	77.9195	204.256	-22.4253	7.30948	3.30989	-0.000945874	0.00575676	0.00083776	1	11	0.0464082	0.000227206	-3.28773e-06	2.39641e-05	0.00452558	0.00186765	0.00489581	22.4253	-5.68661e-07
316230	195.485	76.9101	210.07	-21.4763	7.90448	3.30988	-0.00101148	0.00654385	0.000877146	1	11	0.0562958	0.000267986	-3.52199e-06	0.000184326	0.0044298	0.00174283	0.00476032	21.4763	-2.34261e-07
281835	201.914	75.7286	215.648	-20.5587	8.49949	3.3099	-0.000947916	0.00745704	0.000919587	1	11	0.0673175	0.000312163	-3.24245e-06	2.39641e-05	0.00434185	0.00162842	0.00463718	20.5587	2.7954e-07
251188	208.067	74.3805	220.963	-19.6711	9.09449	3.30989	-0.000989542	0.00851849	0.000965257	1	11	0.0795028	0.000359802	-3.5644e-06	-0.00037694	0.00426154	0.00152342	0.00452565	19.6711	-3.21946e-07
223872	213.929	72.8698	226	-18.8102	9.69049	3.30991	-0.000884538	0.00975603	0.00101427	1	11	0.0928679	0.000410921	-3.56086e-06	-0.000296759	0.00418847	0.0014267	0.00442479	18.8102	3.5367e-09
199544	219.515	71.3055	230.806	-17.9955	10.2875	3.30986	-0.00109008	0.0111856	0.00106761	1	11	0.107374	0.000465213	-3.0638e-06	0.000264507	0.0041207	0.00133854	0.00433265	17.9955	4.97059e-07
177832	224.854	69.7733	235.431	-17.2394	10.7465	3.3099	-0.000971886	0.0128269	0.00112661	1	11	0.12304	0.000522618	-3.47548e-06	-0.000216578	0.00405671	0.00125882	0.00424753	17.2394	-4.11674e-07
158486	229.914	68.2082	239.818	-16.524	11.2065	3.30988	-0.00114937	0.0147229	0.00119097	1	11	0.139804	0.00058296	-3.41578e-06	-5.62167e-05	0.00399761	0.00118596	0.00416982	16.524	5.96985e-08
141256	234.86	66.6467	244.133	-15.8425	11.8015	3.30992	-0.00103972	0.0169058	0.00125991	1	11	0.130371	0.000534014	-4.15724e-06	0.000104145	0.00394054	0.00111821	0.00409612	15.8425	-7.41467e-07
125909	239.494	65.1361	248.194	-15.2149	12.3985	3.30994	-0.00104641	0.0194062	0.0013366	1	11	0.129951	0.000523586	-4.63575e-06	-0.000136398	0.00388789	0.0010574	0.00402911	15.2149	-4.78509e-07
112205	243.972	63.6939	252.149	-14.6317	12.9935	3.30999	-0.000886025	0.0222695	0.00142099	1	11	0.129715	0.000514438	-4.32476e-06	0.000104145	0.00383729	0.0010018	0.00396591	14.6317	3.10994e-07
100004	248.254	62.3411	255.962	-14.0965	13.5895	3.30997	-0.00104307	0.0255287	0.00151435	1	11	0.129713	0.000506766	-4.79396e-06	2.39641e-05	0.00378918	0.000951533	0.00390683	14.0965	-4.692e-07
89129.3	252.364	61.1043	259.656	-13.6109	14.1855	3.30998	-0.00105273	0.0292232	0.00161835	1	11	0.129488	0.00049869	-5.34818e-06	-0.000457121	0.00374309	0.000906303	0.00385124	13.6109	-5.54218e-07
79433.3	256.343	59.9715	263.265	-13.1675	14.7815	3.31002	-0.000964825	0.0334097	0.00173371	1	11	0.129452	0.000491718	-5.93472e-06	2.39641e-05	0.00369859	0.000865286	0.00379846	13.1675	-5.86539e-07
70795	260.141	58.9542	266.738	-12.7689	15.3765	3.31001	-0.00100924	0.0381332	0.00186279	1	11	0.129351	0.000484937	-6.38202e-06	-0.000216578	0.00365629	0.000828602	0.003749	12.7689	-4.47307e-07
63093.8	263.798	58.0882	270.117	-12.4183	15.8365	3.31002	-0.000999949	0.0434255	0.00200824	1	11	0.140316	0.000519461	-7.00481e-06	-0.000216578	0.00361548	0.000796128	0.00370209	12.4183	-6.22784e-07
56237	267.374	57.3969	273.465	-12.1157	16.4325	3.31002	-0.000991028	0.0493071	0.00217211	1	11	0.130249	0.00047629	-8.05966e-06	-0.00037694	0.00357532	0.00076751	0.00365677	12.1157	-1.05486e-06
50122.5	270.878	56.8371	276.777	-11.8502	16.8915	3.31003	-0.000985454	0.0558671	0.00235591	1	11	0.139346	0.00050346	-8.22039e-06	0.000184326	0.00353602	0.000741945	0.00361302	11.8502	-1.60728e-07
44666.7	274.321	56.464	280.072	-11.6308	17.4865	3.31003	-0.00100627	0.0631052	0.00256488	1	11	0.130061	0.000464384	-7.73924e-06	-5.62167e-05	0.0034972	0.000719833	0.00357051	11.6308	4.81151e-07
39814.1	277.664	56.3053	283.315	-11.4631	17.9465	3.31001	-0.00106704	0.070996	0.0028041	1	11	0.137141	0.000484056	-7.67759e-06	-5.62167e-05	0.00345923	0.000701471	0.00352964	11.4631	6.16495e-08
35481	280.994	56.3006	286.579	-11.3299	18.5415	3.31006	-0.000928398	0.079673	0.00307502	1	11	0.129517	0.000451943	-8.60085e-06	-0.000136398	0.00342144	0.000685526	0.00348944	11.3299	-9.23264e-07
31621.1	284.321	56.5078	289.882	-11.2408	19.0005	3.31005	-0.000929327	0.0890706	0.0033846	1	11	0.134727	0.000464766	-9.08443e-06	2.39641e-05	0.0033835	0.000672458	0.00344968	11.2408	-4.83578e-07
28188.1	287.635	56.8897	293.207	-11.1878	19.4605	3.31004	-0.000988983	0.0992478	0.00373629	1	11	0.139281	0.000475027	-9.09774e-06	-0.000136398	0.00334575	0.000661738	0.00341056	11.1878	-1.33052e-08
25116.9	290.965	57.4753	296.587	-11.174	20.0565	3.31005	-0.00100367	0.110249	0.00414028	1	11	0.129536	0.000436755	-9.09373e-06	-0.000457121	0.00330777	0.000653395	0.00337169	11.174	4.00225e-09
22389	294.35	58.2684	300.062	-11.1973	20.5155	3.31005	-0.000929327	0.121998	0.00460041	1	11	0.132529	0.000441672	-9.17013e-06	0.000344687	0.00326921	0.00064716	0.00333265	11.1973	-7.63959e-08
19948.8	297.817	59.2731	303.658	-11.2562	20.9755	3.31005	-0.000984152	0.1346	0.00512852	1	11	0.135024	0.000444657	-8.91446e-06	0.000184326	0.00322983	0.000642818	0.00329318	11.2562	2.55673e-07
17786.9	301.365	60.47	307.372	-11.3459	21.4355	3.31004	-0.0010163	0.147972	0.00572706	1	11	0.137063	0.000445919	-9.10331e-06	-5.62167e-05	0.00318981	0.000640046	0.00325339	11.3459	-1.8885e-07
15847.7	305.006	61.8597	311.216	-11.4649	21.8955	3.31004	-0.00100199	0.162348	0.00641416	1	11	0.138728	0.000445763	-8.83678e-06	0.000104145	0.00314909	0.000638683	0.00321321	11.4649	2.66528e-07
14121.9	308.783	63.4968	315.244	-11.6201	22.3545	3.31005	-0.00103154	0.177491	0.00720087	1	11	0.140051	0.000444261	-8.6722e-06	-0.000216578	0.00310713	0.000638936	0.00317214	11.6201	1.64583e-07
12590.9	312.665	65.2775	319.407	-11.7927	22.9505	3.31005	-0.00103991	0.193642	0.00808792	1	11	0.129343	0.000404946	-8.6198e-06	-5.62167e-05	0.00306472	0.000639845	0.0031308	11.7927	5.23912e-08
11217.7	316.794	67.2898	323.862	-11.9919	23.4095	3.31006	-0.00103507	0.210847	0.00910219	1	11	0.130101	0.000401719	-8.86313e-06	-0.000136398	0.00302036	0.000641549	0.00308774	11.9919	-2.43321e-07
10002.2	321.066	69.4811	328.498	-12.2109	23.8695	3.31007	-0.000883424	0.229011	0.0102453	1	11	0.130691	0.000397845	-8.93609e-06	0.000104145	0.00297529	0.000643874	0.00304416	12.2109	-7.29623e-08
8914.93	325.551	71.8643	333.389	-12.4482	24.3519	3.31007	-0.00098025	0.248422	0.0115429	1	11	0.131138	0.00039335	-9.25693e-06	-0.00037694	0.00292899	0.000646564	0.0029995	12.4482	-3.20839e-07
7944	330.303	74.4086	338.58	-12.6953	24.878	3.31007	-0.0010295	0.269251	0.0130041	1	11	0.131481	0.00038833	-9.46138e-06	-0.000136398	0.0028813	0.000649082	0.00295351	12.6953	-2.04451e-07
7082.23	335.258	77.1171	344.013	-12.954	25.4549	3.31009	-0.000970586	0.291406	0.0146437	1	11	0.131727	0.000382912	-9.28014e-06	-0.000136398	0.00283288	0.000651628	0.00290686	12.954	1.81233e-07
6307.73	340.536	79.9699	349.8	-13.2156	26.0896	3.31009	-0.00111127	0.315515	0.0164905	1	11	0.131926	0.000377149	-9.79414e-06	0.000264507	0.00278307	0.000653564	0.00285878	13.2156	-5.13997e-07
5621.06	346.163	82.9684	355.967	-13.4784	26.7903	3.31008	-0.00115848	0.341263	0.0185394	1	11	0.132063	0.000370999	-9.92602e-06	-0.00037694	0.00273188	0.000654777	0.00280925	13.4784	-1.31882e-07
5011.6	352.081	86.0666	362.448	-13.7366	27.5507	3.3101	-0.00114621	0.368985	0.020806	1	11	0.132152	0.00036461	-1.02688e-05	2.39641e-05	0.00268011	0.000655155	0.00275902	13.7366	-3.42803e-07
4466.43	358.401	89.2279	369.341	-13.9802	28.3107	3.31011	-0.00107522	0.399355	0.023308	1	11	0.132225	0.000358002	-1.06946e-05	-5.62167e-05	0.00262733	0.000654102	0.00270752	13.9802	-4.25799e-07
3981.27	365.029	92.4834	376.563	-14.2172	29.0707	3.31008	-0.00115067	0.432249	0.0260728	1	11	0.132264	0.000351239	-1.1156e-05	0.000344687	0.00257426	0.000652213	0.0026556	14.2172	-4.61401e-07
3546.6	372.216	95.8761	384.365	-14.4444	30.0819	3.31008	-0.000135678	0.468056	0.0291226	1	12	0.134161	0.000349045	-1.18512e-05	-0.000136398	0.00251945	0.000648965	0.00260169	14.4444	-6.95156e-07
3161.01	379.718	99.074	392.43	-14.6233	30.8417	3.31009	-0.000154999	0.5082	0.0323914	1	12	0.134326	0.000342292	-1.19074e-05	0.000424868	0.00246568	0.000643332	0.00254822	14.6233	-5.61846e-08
2817.3	387.622	102.221	400.874	-14.7733	31.602	3.31008	-0.000166842	0.552647	0.0359345	1	12	0.134355	0.000335156	-1.2237e-05	-0.000216578	0.00241208	0.000636097	0.00249455	14.7733	-3.29641e-07
2510.8	396.02	105.264	409.771	-14.8853	32.3617	3.3101	-9.59185e-05	0.602182	0.039738	1	12	0.134309	0.000327766	-1.23365e-05	2.39641e-05	0.00235849	0.0006269	0.00244039	14.8853	-9.95174e-08
2237.85	404.779	108.073	418.958	-14.9489	33.1219	3.31009	-0.000176856	0.658068	0.0437891	1	12	0.134197	0.000320313	-1.2169e-05	0.000505049	0.00230609	0.000615712	0.00238687	14.9489	1.67553e-07
1995.64	413.94	110.63	428.469	-14.9633	33.8817	3.31009	-0.000159904	0.720881	0.048059	1	12	0.134052	0.000312863	-1.24094e-05	0.000184326	0.00225475	0.00060261	0.00233389	14.9633	-2.40458e-07
1778.29	423.589	112.906	438.378	-14.925	34.642	3.31009	-0.000165928	0.792681	0.0525821	1	12	0.133891	0.000305425	-1.21769e-05	0.000424868	0.00220418	0.000587518	0.00228114	14.925	2.3254e-07
1585.51	433.548	114.744	448.475	-14.8242	35.4017	3.3101	-0.000134729	0.874826	0.057267	1	12	0.133715	0.000298153	-1.22287e-05	-0.000216578	0.00215556	0.000570496	0.00222978	14.8242	-5.18186e-08
1411.84	443.905	116.207	458.863	-14.6699	36.1612	3.31008	-0.000162124	0.970073	0.0622158	1	12	0.133537	0.000291016	-1.24835e-05	0.00058523	0.00210826	0.000551906	0.0021793	14.6699	-2.54748e-07
1258.79	454.396	117.084	469.238	-14.4491	36.921	3.31009	-0.000167943	1.07986	0.0672324	1	12	0.133367	0.000284221	-1.26404e-05	2.39641e-05	0.00206371	0.000531756	0.00213111	14.4491	-1.56902e-07
1121.79	465.111	117.456	479.712	-14.1727	37.6784	3.31009	-0.000152726	1.20791	0.0724134	1	12	0.133208	0.000277683	-1.25012e-05	-0.000136398	0.00202113	0.000510402	0.00208458	14.1727	1.39148e-07
1000.32	475.787	117.221	490.014	-13.8404	38.4377	3.31009	-0.000182509	1.3573	0.0776726	1	12	0.133064	0.000271551	-1.22907e-05	0.000264507	0.0019815	0.000488188	0.00204076	13.8404	2.10464e-07
891.427	486.578	116.346	500.294	-13.4476	39.1964	3.31009	-0.000146926	1.53455	0.0829919	1	12	0.132931	0.000265705	-1.20954e-05	0.000104145	0.00194402	0.000464838	0.00199882	13.4476	1.9539e-07
794.238	497.141	114.865	510.238	-13.01	39.956	3.31009	-0.000208749	1.74454	0.088412	1	12	0.132807	0.000260284	-1.22899e-05	-5.62167e-05	0.00190956	0.000441206	0.00195987	13.01	-1.94592e-07
707.509	507.587	112.779	519.965	-12.5269	40.7184	3.31009	-0.000142414	1.99461	0.093836	1	12	0.132699	0.000255208	-1.21479e-05	2.39641e-05	0.00187742	0.00041714	0.00192321	12.5269	1.4202e-07
631.01	517.512	110.213	529.118	-12.0225	41.4764	3.31009	-0.000164925	2.28849	0.0992917	1	12	0.132607	0.000250619	-1.20129e-05	0.000264507	0.00184848	0.000393667	0.00188994	12.0225	1.35078e-07
562.339	527.098	107.087	537.866	-11.4841	42.2329	3.31009	-0.000174045	2.64292	0.104764	1	12	0.132527	0.000246393	-1.21319e-05	0.000104145	0.00182198	0.000370159	0.0018592	11.4841	-1.19016e-07
501.444	536.123	103.633	546.047	-10.9404	42.9902	3.31009	-0.000142135	3.06268	0.110315	1	12	0.132459	0.000242578	-1.19744e-05	-5.62167e-05	0.00179806	0.000347565	0.00183134	10.9404	1.57468e-07
446.859	544.603	99.8194	553.675	-10.3864	43.7469	3.31009	-0.000177084	3.56808	0.115973	1	12	0.132395	0.000239121	-1.22024e-05	-0.000216578	0.00177652	0.000325616	0.00180611	10.3864	-2.27955e-07
398.089	552.591	95.742	560.824	-9.82949	44.5097	3.3101	-0.000171582	4.17578	0.1217	1	12	0.132349	0.00023599	-1.23448e-05	-0.000216578	0.00175692	0.000304403	0.00178309	9.82949	-1.42435e-07
354.66	559.939	91.5559	567.374	-9.28629	45.2699	3.31008	-0.000230588	4.90142	0.127631	1	12	0.132305	0.000233188	-1.23969e-05	-0.000216578	0.00173941	0.000284411	0.0017625	9.28629	-5.21104e-08
316.316	566.593	87.4349	573.299	-8.77251	46.0259	3.31009	-0.000159889	5.75459	0.133851	1	12	0.132273	0.000230722	-1.24179e-05	0.000344687	0.00172388	0.000266025	0.00174429	8.77251	-2.10133e-08
281.894	572.708	83.2762	578.731	-8.27326	46.7814	3.31009	-0.000159516	6.77974	0.140379	1	12	0.132242	0.000228503	-1.23352e-05	2.39641e-05	0.00170994	0.000248638	0.00172792	8.27326	8.2666e-08
251.044	578.31	79.2467	583.714	-7.80273	47.5379	3.3101	-0.000137529	7.99997	0.147452	1	12	0.132215	0.000226506	-1.25701e-05	-5.62167e-05	0.00169731	0.000232584	0.00171317	7.80273	-2.34877e-07
223.925	583.362	75.458	588.222	-7.3703	48.3007	3.3101	-0.000148252	9.41916	0.155003	1	12	0.132194	0.000224734	-1.27982e-05	0.000264507	0.00168599	0.000218084	0.00170004	7.3703	-2.28068e-07
199.553	588.03	71.8421	592.403	-6.96554	49.0612	3.31009	-0.000147581	11.1015	0.16327	1	12	0.132177	0.00022312	-1.29847e-05	2.39641e-05	0.00167558	0.000204713	0.00168804	6.96554	-1.86483e-07
177.781	592.264	68.5141	596.214	-6.59874	49.8283	3.31009	-9.70785e-05	13.0663	0.172548	1	12	0.132161	0.000221667	-1.27899e-05	2.39641e-05	0.00166614	0.000192742	0.00167725	6.59874	1.94773e-07
158.428	596.239	65.4428	599.82	-6.26368	50.5947	3.3101	-0.000137678	15.3506	0.182729	1	12	0.132154	0.000220323	-1.29174e-05	-5.62167e-05	0.00165722	0.000181895	0.00166717	6.26368	-1.2747e-07
141.311	599.804	62.6785	603.07	-5.96567	51.3479	3.31009	-0.000129883	17.969	0.194101	1	12	0.132142	0.000219116	-1.29146e-05	0.000104145	0.0016492	0.000172339	0.00165818	5.96567	2.7766e-09
125.846	603.191	60.1794	606.186	-5.69745	52.1034	3.31009	-0.000140103	21.0152	0.207118	1	12	0.132135	0.000217978	-1.29407e-05	0.000344687	0.00164151	0.000163771	0.00164966	5.69745	-2.60845e-08
112.19	606.397	58.0394	609.168	-5.46723	52.8489	3.31009	-0.000139189	24.4424	0.221878	1	12	0.13213	0.000216903	-1.28959e-05	0.000505049	0.00163411	0.000156404	0.00164158	5.46723	4.47904e-08
100.032	609.369	56.1926	611.954	-5.26859	53.6087	3.31009	-0.000152859	28.3141	0.238738	1	12	0.132125	0.000215906	-1.27864e-05	0.000264507	0.00162721	0.000150052	0.00163411	5.26859	1.09452e-07
89.116	612.214	54.6332	614.647	-5.09949	54.3757	3.3101	-0.000122572	32.6895	0.258267	1	12	0.132116	0.000214946	-1.27511e-05	-0.000216578	0.00162051	0.000144612	0.00162695	5.09949	3.52982e-08
79.4155	614.999	53.4963	617.321	-4.97142	55.1402	3.31009	-0.000126022	37.462	0.28133	1	12	0.132114	0.000214011	-1.28547e-05	-0.000216578	0.00161381	0.000140379	0.0016199	4.97142	-1.03565e-07
70.8387	617.715	52.4852	619.94	-4.85657	55.8914	3.31009	-0.000147637	42.8067	0.306822	1	12	0.132112	0.000213104	-1.28941e-05	0.000344687	0.00160727	0.000136564	0.00161306	4.85657	-3.94005e-08
63.0823	620.36	51.8082	622.519	-4.77388	56.6719	3.31009	-0.000119626	48.6983	0.337292	1	12	0.132106	0.000212212	-1.28117e-05	0.000344687	0.0016008	0.000133688	0.00160638	4.77388	8.23942e-08
56.2418	622.983	51.2992	625.092	-4.70737	57.4163	3.3101	-7.18836e-05	55.1633	0.371521	1	12	0.132106	0.000211338	-1.29587e-05	-0.000136398	0.00159437	0.000131287	0.00159976	4.70737	-1.4704e-07
50.1444	625.596	51.2217	627.689	-4.68075	58.1732	3.3101	-7.6546e-05	61.9646	0.412631	1	12	0.132102	0.000210458	-1.30804e-05	-0.00037694	0.00158783	0.000130006	0.00159314	4.68075	-1.21663e-07
44.6712	628.294	51.3309	630.387	-4.67062	58.9372	3.3101	-0.000103625	69.4087	0.46021	1	12	0.132099	0.000209553	-1.2999e-05	0.000344687	0.00158106	0.000129171	0.00158633	4.67062	8.14e-08
39.8089	630.981	51.703	633.096	-4.68439	59.6997	3.3101	-9.35726e-05	77.3257	0.515723	1	12	0.1321	0.000208657	-1.31765e-05	-5.62167e-05	0.00157426	0.000128996	0.00157954	4.68439	-1.7746e-07
35.4653	633.639	52.2559	635.79	-4.71448	60.4501	3.31009	-0.000133184	85.8779	0.580127	1	12	0.132092	0.00020776	-1.28821e-05	-0.000216578	0.00156752	0.000129273	0.00157285	4.71448	2.94418e-07
31.6296	636.477	53.0674	638.686	-4.76611	61.1745	3.3101	-8.05928e-05	94.8198	0.654607	1	12	0.132096	0.000206824	-1.29861e-05	0.000104145	0.0015603	0.000130093	0.00156571	4.76611	-1.04036e-07
28.1701	639.403	54.1761	641.694	-4.84306	61.9798	3.31009	-5.22462e-05	104.286	0.743334	1	12	0.132092	0.000205849	-1.35443e-05	-0.000296759	0.00155281	0.000131568	0.00155837	4.84306	-5.58258e-07
25.1044	642.346	55.5053	644.74	-4.93868	62.7359	3.31009	-0.000117164	114.218	0.846517	1	12	0.132097	0.000204885	-1.36602e-05	-5.62167e-05	0.00154526	0.000133526	0.00155101	4.93868	-1.15804e-07
22.3854	645.438	57.0961	647.958	-5.05529	63.4224	3.31009	-0.000144206	124.523	0.96687	1	12	0.132096	0.000203865	-1.30391e-05	-0.00037694	0.00153731	0.000135992	0.00154331	5.05529	6.21023e-07
19.9553	648.603	58.8965	651.272	-5.18852	64.1842	3.31009	-6.01161e-05	135.417	1.10746	1	12	0.132092	0.000202822	-1.30722e-05	0.000184326	0.00152917	0.000138856	0.00153546	5.18852	-3.30931e-08
17.7961	651.917	60.956	654.761	-5.34178	65.0285	3.31009	-0.000106674	146.716	1.27159	1	12	0.132096	0.000201747	-1.299e-05	-0.000136398	0.00152064	0.000142184	0.00152728	5.34178	8.22134e-08
15.8576	655.348	63.201	658.388	-5.5085	65.7509	3.31008	-0.000101834	158.803	1.46333	1	12	0.132089	0.000200625	-1.36968e-05	2.39641e-05	0.00151185	0.000145801	0.00151886	5.5085	-7.06784e-07
14.119	659.01	65.7523	662.283	-5.69779	66.5533	3.31009	-0.000107821	171.438	1.68982	1	12	0.132091	0.000199449	-1.28093e-05	-5.62167e-05	0.00150247	0.000149908	0.00150993	5.69779	8.87486e-07
12.6008	662.821	68.5005	666.351	-5.9004	67.4438	3.31009	-7.72828e-05	184.386	1.94854	1	12	0.13209	0.000198229	-1.30534e-05	0.000264507	0.00149276	0.000154272	0.00150071	5.9004	-2.44136e-07
11.2249	666.846	71.6247	670.682	-6.13053	68.1279	3.31009	-3.41004e-05	197.96	2.25771	1	12	0.132091	0.00019695	-1.29075e-05	0.000184326	0.00148249	0.000159232	0.00149102	6.13053	1.45986e-07
10.0032	671.129	74.8944	675.295	-6.36756	68.8887	3.3101	-8.14074e-06	212.438	2.61303	1	12	0.132096	0.000195613	-1.43375e-05	0.000264507	0.0014717	0.000164234	0.00148084	6.36756	-1.43009e-06
8.91838	675.53	78.4358	680.068	-6.62296	69.733	3.31009	-0.000141623	227.52	3.02652	1	12	0.13209	0.000194231	-1.25101e-05	2.39641e-05	0.00146063	0.000169594	0.00147044	6.62296	1.8275e-06
7.93953	680.365	82.3189	685.327	-6.89881	70.6717	3.31009	-4.69593e-05	243.515	3.51341	1	12	0.132092	0.000192744	-1.4519e-05	-0.000216578	0.00144859	0.000175269	0.00145916	6.89881	-2.0089e-06
7.07654	685.142	86.4191	690.571	-7.18893	71.23	3.31007	-0.00023499	260.249	4.07561	1	12	0.132088	0.000191274	-1.44883e-05	-0.000136398	0.00143669	0.000181215	0.00144808	7.18893	3.07e-08
6.31058	690.367	90.761	696.307	-7.4896	71.8502	3.31006	-0.000245266	277.876	4.72116	1	12	0.132099	0.000189713	-1.39311e-05	-5.62167e-05	0.0014239	0.000187196	0.00143615	7.4896	5.57187e-07
5.6205	695.993	95.606	702.529	-7.82155	72.5366	3.31008	-0.000233368	296.183	5.48531	1	12	0.132094	0.000188026	-1.26211e-05	0.000184326	0.00141019	0.000193712	0.00142343	7.82155	1.30997e-06
5.01444	702.011	100.318	709.143	-8.13253	73.2942	3.31007	-1.85658e-05	316.388	6.33151	1	12	0.132081	0.000186255	-1.14899e-05	0.000264507	0.00139597	0.000199485	0.00141015	8.13253	1.13121e-06
4.46939	707.947	105.58	715.777	-8.48231	74.1355	3.31009	8.44621e-05	337.28	7.33834	1	12	0.13209	0.000184541	-1.31491e-05	-0.00037694	0.0013818	0.000206075	0.00139708	8.48231	-1.65923e-06
3.97785	714.947	111.394	723.573	-8.85588	75.0722	3.31008	-6.04429e-05	359.179	8.51271	1	12	0.13209	0.000182552	-1.54305e-05	-5.62167e-05	0.00136556	0.000212763	0.00138203	8.85588	-2.28141e-06
3.55114	721.512	117.059	730.946	-9.21543	76.1134	3.31009	-0.000296281	382.868	9.81944	1	12	0.132092	0.000180714	-1.25757e-05	0.000104145	0.00135043	0.000219096	0.00136809	9.21543	2.8548e-06
3.1604	729.471	123.432	739.84	-9.60388	77.2762	3.3101	-2.11725e-06	407.993	11.3561	1	12	0.132092	0.000178541	-1.1418e-05	-0.000216578	0.0013327	0.000225502	0.00135164	9.60388	1.15771e-06
2.81836	737.052	130.099	748.446	-10.0103	78.5716	3.3101	4.58102e-05	434.059	13.1153	1	12	0.13209	0.000176486	-1.61341e-05	-0.000136398	0.00131576	0.000232249	0.0013361	10.0103	-4.71607e-06
2.51367	745.394	136.674	757.82	-10.3902	80.0157	3.3101	-0.000131314	463.26	15.0683	1	12	0.13209	0.000174303	-1.18063e-05	2.39641e-05	0.00129794	0.000237987	0.00131957	10.3902	4.3278e-06
2.23982	754.421	143.911	768.025	-10.7998	81.6303	3.3101	8.03721e-06	493.755	17.3361	1	12	0.132092	0.00017199	-1.25188e-05	-0.000216578	0.00127898	0.000243975	0.00130204	10.7998	-7.12476e-07
1.99706	763.753	151.706	778.674	-11.2345	83.4337	3.3101	-3.92852e-05	525.324	19.9397	1	12	0.132092	0.000169637	-1.64733e-05	-5.62167e-05	0.00125963	0.000250202	0.00128423	11.2345	-3.95454e-06
1.77961	773.429	159.68	789.741	-11.6652	85.4519	3.3101	-0.000122758	560.072	22.8969	1	12	0.132089	0.000167256	-9.13921e-06	0.000505049	0.00124009	0.000256025	0.00126624	11.6652	7.33408e-06
1.58469	783.885	167.921	801.669	-12.0909	87.7111	3.31011	8.65307e-05	598.098	26.2417	1	12	0.132088	0.000164766	-1.76471e-05	0.000344687	0.00121973	0.000261285	0.0012474	12.0909	-8.5079e-06
1.41224	795.085	176.561	814.453	-12.5203	90.2401	3.31011	-0.000160918	638.289	29.9968	1	12	0.13209	0.000162183	-1.03967e-05	-0.000136398	0.00119862	0.000266172	0.00122782	12.5203	7.25039e-06
1.25967	806.888	185.596	827.958	-12.9535	93.0691	3.31011	3.0941e-05	680.76	34.2068	1	12	0.132088	0.000159535	-1.46758e-05	-0.000296759	0.00117706	0.000270739	0.00120779	12.9535	-4.2791e-06
1.12249	819.348	195.256	842.292	-13.404	96.2371	3.31011	-5.78229e-05	726.163	39.0229	1	12	0.132091	0.000156823	-1.45175e-05	0.000184326	0.0011549	0.00027522	0.00118724	13.404	1.58359e-07
1.00006	832.466	205.288	857.405	-13.8529	99.7863	3.31011	-1.6097e-05	775.225	44.4411	1	12	0.132091	0.00015406	-1.02284e-05	-0.000136398	0.00113239	0.00027925	0.00116631	13.8529	4.28904e-06