File: utils/DE_206_1_30.mpt
EC-Lab ASCII FILE
Nb header lines : 60

Potentio Electrochemical Impedance Spectroscopy

Run on channel : 1 (SN 20909)
User :
CE vs. WE compliance from -10 V to 10 V
Electrode connection : standard
Ewe ctrl range : min = -10.00 V, max = 10.00 V
Acquisition started on : 12/03/2020 16:54:43
Technique started on : 12/03/2020 16:54:44
Saved on :
	File : DE_206_1_30.mpr
	Directory : P:\Chemistry\Data\VMP3\Kyler\DOE\DE_206\
	Host : 10.0.4.64
Device : VMP3 (SN 1432)
Address : USB
EC-Lab for windows v11.33 (software)
Internet server v11.32 (firmware)
Command interpretor v11.33 (firmware)
Electrode material :
Initial state :
Electrolyte :
Comments :
Electrode surface area : 0.001 cm�
Characteristic mass : 0.001 g
Equivalent Weight : 0.000 g/eq.
Density : 0.000 g/cm3
Record Analogic IN 1
Cycle Definition : Charge/Discharge alternance
Mode                Single sine
E (V)               0.0000
vs.                 Eoc
tE (h:m:s)          0:00:0.0000
record              0
dI                  1.000
unit dI             mA
dt (s)              0.000
fi                  1.000
unit fi             MHz
ff                  1.000
unit ff             Hz
Nd                  20
Points              per decade
spacing             Logarithmic
Va (mV)             128.0
pw                  0.50
Na                  3
corr                0
E range min (V)     -10.000
E range max (V)     10.000
I Range             Auto
Bandwidth           5
nc cycles           0
goto Ns'            0
nr cycles           0
inc. cycle          1

freq/Hz	Re(Z)/Ohm	-Im(Z)/Ohm	|Z|/Ohm	Phase(Z)/deg	time/s	<Ewe>/V	<I>/mA	Cs/�F	Cp/�F	cycle number	I Range	|Ewe|/V	|I|/A	(Q-Qo)/mA.h	Analog IN 1/V	Re(Y)/Ohm-1	Im(Y)/Ohm-1	|Y|/Ohm-1	Phase(Y)/deg	dq/mA.h
707950	124.907	62.6547	139.74	-26.6388	3.43148	3.30536	-0.00148847	0.00358809	0.000721319	1	11	0.0017053	1.22033e-05	-1.97817e-06	0.000422931	0.00639651	0.00320856	0.00715613	26.6388	-3.47568e-07
630957	131.473	61.9142	145.322	-25.217	4.0275	3.30577	-0.0010482	0.00407408	0.000739514	1	11	0.000876908	6.03423e-06	-2.27601e-06	2.1919e-05	0.00622548	0.00293174	0.00688126	25.217	-2.97836e-07
562342	137.29	60.7372	150.125	-23.8647	4.62348	3.3061	-0.000763398	0.00465977	0.000762727	1	11	0.00113692	7.57318e-06	-2.63266e-06	-0.000138486	0.00609162	0.00269494	0.00666112	23.8647	-3.56655e-07
501206	143.034	60.8716	155.448	-23.0534	5.22049	3.30641	-0.000468145	0.00521661	0.000799924	1	11	0.00455797	2.93215e-05	-2.96826e-06	-0.000138486	0.00591928	0.0025191	0.00643302	23.0534	-3.35593e-07
446686	148.381	60.5431	160.257	-22.1967	5.81548	3.30664	-0.000352059	0.00588509	0.000839937	1	11	0.00947407	5.91178e-05	-3.23478e-06	2.1919e-05	0.00577754	0.00235738	0.00623996	22.1967	-2.66526e-07
398103	153.856	59.7284	165.043	-21.2167	6.41149	3.30682	-5.5873e-05	0.00669335	0.000876624	1	11	0.0159477	9.66279e-05	-3.1558e-06	-5.82835e-05	0.00564835	0.00219275	0.00605904	21.2167	7.89876e-08
354810	158.866	58.9983	169.468	-20.3735	7.00747	3.30693	-0.000123621	0.007603	0.000921487	1	11	0.0238764	0.000140891	-3.06598e-06	-0.000379094	0.00553169	0.0020543	0.00590082	20.3735	8.98122e-08
316230	163.76	58.0938	173.759	-19.5321	7.60248	3.30703	1.89689e-05	0.00866338	0.000968394	1	11	0.0333779	0.000192093	-2.83504e-06	-0.000138486	0.00542391	0.00192413	0.00575509	19.5321	2.30946e-07
281835	168.356	56.9831	177.738	-18.6993	8.19749	3.30707	3.10672e-06	0.00991014	0.00101861	1	11	0.0443112	0.000249306	-3.08521e-06	-0.000138486	0.00532926	0.00180378	0.00562625	18.6993	-2.5017e-07
251188	172.837	55.9606	181.671	-17.9407	8.79249	3.3071	-0.000131827	0.0113224	0.00107432	1	11	0.0566968	0.000312085	-3.25414e-06	-5.82835e-05	0.00523681	0.00169555	0.00550446	17.9407	-1.6893e-07
223872	177.076	54.8325	185.372	-17.2054	9.38849	3.30717	9.15726e-05	0.0129653	0.00113442	1	11	0.0703876	0.00037971	-3.27647e-06	0.000102121	0.00515316	0.0015957	0.00539457	17.2054	-2.23282e-08
199544	181.118	53.6478	188.896	-16.4995	9.98547	3.3072	0.000105758	0.0148672	0.00119919	1	11	0.0854549	0.000452391	-4.30497e-06	-0.000459296	0.00507592	0.00150351	0.00529391	16.4995	-1.02851e-06
177832	184.964	52.5423	192.282	-15.8581	10.5815	3.30723	7.79502e-05	0.0170334	0.00127186	1	11	0.101687	0.000528843	-4.13957e-06	-0.000298891	0.00500275	0.00142112	0.00520068	15.8581	1.65403e-07
158486	188.698	51.4126	195.577	-15.2408	11.0415	3.30729	0.000225769	0.0195326	0.00134978	1	11	0.119073	0.000608829	-4.05534e-06	-0.000138486	0.00493325	0.00134411	0.00511308	15.2408	8.42284e-08
141256	192.237	50.3918	198.732	-14.6887	11.5005	3.30722	-0.000171382	0.0223591	0.0014376	1	11	0.137602	0.000692399	-4.22256e-06	0.000182324	0.00486746	0.00127593	0.00503191	14.6887	-1.67222e-07
125909	195.684	49.4096	201.825	-14.1708	12.0975	3.30735	0.000108377	0.025583	0.00153328	1	11	0.130389	0.000646049	-5.6904e-06	-5.82835e-05	0.00480401	0.001213	0.00495478	14.1708	-1.46783e-06
112205	198.947	48.4611	204.764	-13.6899	12.6935	3.30745	0.000306951	0.0292695	0.00163943	1	11	0.130082	0.000635277	-4.52494e-06	0.000503134	0.00474492	0.0011558	0.00488366	13.6899	1.16546e-06
100004	202.147	47.6737	207.693	-13.2699	13.2895	3.3074	2.84966e-05	0.033383	0.00175889	1	11	0.129903	0.000625455	-5.47209e-06	-0.000298891	0.00468624	0.00110519	0.0048148	13.2699	-9.4715e-07
89129.3	205.224	46.9281	210.521	-12.8803	13.8855	3.30743	3.6893e-05	0.0380511	0.00189079	1	11	0.129656	0.000615882	-5.47134e-06	2.1919e-05	0.0046306	0.00105887	0.00475013	12.8803	7.54533e-10
79433.3	208.202	46.27	213.282	-12.5295	14.4815	3.30749	0.000252264	0.0433031	0.00203802	1	11	0.129634	0.000607808	-5.17259e-06	-0.000138486	0.00457697	0.00101717	0.00468863	12.5295	2.98751e-07
70795	211.104	45.7395	216.003	-12.2252	15.0775	3.30745	-0.000104949	0.0491503	0.0022039	1	11	0.129503	0.000599544	-6.58464e-06	-5.82835e-05	0.00452459	0.000980332	0.00462957	12.2252	-1.41205e-06
63093.8	213.912	45.3332	218.663	-11.9654	15.6735	3.3075	3.91301e-05	0.0556438	0.00239166	1	11	0.12933	0.000591457	-6.28756e-06	0.000583336	0.00447389	0.000948127	0.00457325	11.9654	2.9708e-07
56237	216.621	45.0712	221.261	-11.7535	16.1335	3.30749	1.84172e-05	0.0627912	0.00260549	1	11	0.140348	0.000634309	-6.01942e-06	2.1919e-05	0.0044248	0.000920643	0.00451956	11.7535	2.6814e-07
50122.5	219.405	44.9135	223.955	-11.569	16.7285	3.30751	6.78712e-05	0.0706985	0.00284344	1	11	0.130353	0.000582052	-6.32791e-06	0.000262526	0.00437447	0.000895482	0.00446519	11.569	-3.08493e-07
44666.7	222.039	44.8985	226.533	-11.4316	17.1875	3.3075	1.71087e-05	0.0793604	0.00311749	1	11	0.139344	0.000615116	-6.89355e-06	-5.82835e-05	0.0043268	0.000874922	0.00441437	11.4316	-5.65643e-07
39814.1	224.693	45.0561	229.166	-11.3387	17.7835	3.30752	-7.19164e-05	0.0887218	0.00342955	1	11	0.130006	0.000567301	-6.5136e-06	0.000182324	0.00427849	0.000857934	0.00436366	11.3387	3.79947e-07
35481	227.329	45.3509	231.808	-11.2821	18.2425	3.30753	7.23516e-05	0.0989097	0.00378576	1	11	0.13688	0.000590487	-5.98354e-06	0.000182324	0.00423055	0.000843973	0.00431391	11.2821	5.30061e-07
31621.1	230.019	45.8189	234.538	-11.2657	18.8395	3.30755	0.000105011	0.109849	0.0041924	1	11	0.129507	0.000552182	-5.27989e-06	-0.000138486	0.00418155	0.000832951	0.00426371	11.2657	7.03649e-07
28188.1	232.673	46.452	237.265	-11.2904	19.2995	3.30753	2.58792e-05	0.121549	0.00465901	1	11	0.134396	0.000566439	-5.61858e-06	-0.000298891	0.00413314	0.000825161	0.0042147	11.2904	-3.38689e-07
25116.9	235.391	47.2452	240.085	-11.349	19.7595	3.30753	1.4305e-06	0.134121	0.00519376	1	11	0.138649	0.000577498	-5.21881e-06	-0.000539499	0.00408375	0.000819649	0.00416519	11.349	3.99772e-07
22389	238.161	48.2112	242.992	-11.4438	20.3545	3.30755	6.35785e-05	0.147447	0.0058043	1	11	0.129381	0.00053245	-5.62025e-06	-5.82835e-05	0.00403355	0.000816516	0.00411536	11.4438	-4.01443e-07
19948.8	241.017	49.3564	246.019	-11.5732	20.8145	3.30756	-3.44038e-05	0.161644	0.00650593	1	11	0.132117	0.000537021	-5.97574e-06	0.000182324	0.00398208	0.000815466	0.00406472	11.5732	-3.55486e-07
17786.9	243.948	50.6742	249.156	-11.7349	21.2745	3.30756	-5.47572e-06	0.176576	0.00730406	1	11	0.134347	0.000539209	-6.45196e-06	-0.000218689	0.00392966	0.00081629	0.00401355	11.7349	-4.76224e-07
15847.7	246.992	52.1303	252.433	-11.918	21.7345	3.30756	-3.45898e-05	0.192648	0.00821582	1	11	0.13617	0.000539428	-6.20293e-06	-0.000539499	0.00387605	0.000818082	0.00396144	11.918	2.49032e-07
14121.9	250.164	53.8112	255.886	-12.1396	22.1935	3.30755	2.08395e-05	0.209438	0.00926204	1	11	0.137634	0.000537874	-5.84357e-06	0.000102121	0.0038206	0.000821825	0.00390799	12.1396	3.59362e-07
12590.9	253.469	55.6388	259.504	-12.3806	22.6535	3.30755	-6.68772e-05	0.227188	0.0104436	1	11	0.138772	0.00053476	-5.84881e-06	-0.000298891	0.00376389	0.000826209	0.00385351	12.3806	-5.24426e-09
11217.7	256.958	57.6628	263.348	-12.648	23.1135	3.30755	-3.40304e-05	0.246048	0.0117964	1	11	0.139675	0.000530382	-6.26801e-06	-5.82835e-05	0.00370511	0.000831448	0.00379725	12.648	-4.19196e-07
10002.2	260.619	59.808	267.394	-12.9247	23.5725	3.30754	-4.80272e-05	0.26605	0.0133101	1	11	0.140368	0.000524948	-6.63704e-06	-5.82835e-05	0.00364506	0.000836483	0.0037398	12.9247	-3.69029e-07
8914.93	264.453	62.155	271.659	-13.2263	24.1969	3.30757	-4.00025e-05	0.287228	0.0150359	1	11	0.129289	0.000475924	-6.12064e-06	-0.000539499	0.00358344	0.000842222	0.00368108	13.2263	5.16397e-07
7944	268.55	64.6536	276.223	-13.5364	24.723	3.30758	-1.63004e-05	0.309876	0.0169768	1	11	0.129639	0.000469328	-6.61727e-06	0.000342729	0.0035197	0.000847373	0.00362027	13.5364	-4.96625e-07
7082.23	272.892	67.287	281.065	-13.8511	25.2999	3.3076	-6.03592e-06	0.333979	0.0191411	1	11	0.1299	0.000462169	-6.53399e-06	0.000262526	0.00345443	0.00085176	0.00355789	13.8511	8.3281e-08
6307.73	277.552	70.0761	286.262	-14.1699	25.9345	3.3076	-0.000165046	0.360062	0.021577	1	11	0.1301	0.000454481	-6.45741e-06	0.000503134	0.00338702	0.000855153	0.00349331	14.1699	7.65789e-08
5621.06	282.418	72.9614	291.69	-14.4854	26.6353	3.30761	-9.20733e-05	0.388069	0.0242802	1	11	0.130234	0.00044648	-6.81629e-06	0.000422931	0.00331931	0.000857531	0.0034283	14.4854	-3.58883e-07
5011.6	287.648	75.9663	297.51	-14.7938	27.3957	3.30761	-0.000169525	0.418045	0.027256	1	11	0.13032	0.000438036	-6.89711e-06	-0.000298891	0.00324981	0.000858259	0.00336123	14.7938	-8.08155e-08
4466.43	293.199	79.0138	303.659	-15.0823	28.1557	3.3076	-0.00020088	0.450979	0.0305345	1	11	0.130386	0.000429385	-7.19993e-06	0.000262526	0.00317973	0.000856902	0.00329317	15.0823	-3.02827e-07
3981.27	299.083	82.1692	310.165	-15.3622	28.9157	3.30757	-0.00029121	0.486507	0.0341445	1	11	0.13042	0.000420485	-6.88206e-06	-0.000138486	0.00310889	0.000854128	0.00322409	15.3622	3.17871e-07
3546.6	305.427	85.3026	317.115	-15.6045	29.6759	3.3076	-0.000153849	0.526073	0.0380659	1	11	0.130436	0.000411322	-6.74732e-06	0.000663539	0.0030372	0.000848258	0.00315343	15.6045	1.34739e-07
3161.01	312.131	88.4113	324.411	-15.8148	30.4357	3.30761	-0.000136679	0.569491	0.0422972	1	11	0.130445	0.000402097	-6.58501e-06	-5.82835e-05	0.00296583	0.000840074	0.00308251	15.8148	1.62314e-07
2817.3	319.275	91.4565	332.116	-15.9844	31.1959	3.3076	-0.000195656	0.617694	0.0468407	1	11	0.130434	0.000392737	-6.32191e-06	0.000102121	0.00289458	0.000829155	0.003011	15.9844	2.63099e-07
2510.8	326.82	94.3967	340.18	-16.1105	31.9557	3.3076	-0.000209093	0.671507	0.0517067	1	11	0.130426	0.000383402	-6.38362e-06	-0.000298891	0.00282418	0.000815717	0.00293962	16.1105	-6.17116e-08
2237.85	334.759	97.1162	348.561	-16.1779	32.7159	3.3076	-0.000234661	0.732314	0.056849	1	11	0.130401	0.000374113	-6.7512e-06	-5.82835e-05	0.00275533	0.000799344	0.00286894	16.1779	-3.67577e-07
1995.64	343.122	99.6569	357.301	-16.1955	33.7267	3.3076	-3.62621e-05	0.800259	0.0622553	1	12	0.132624	0.000371181	-6.78225e-06	0.000262526	0.00268769	0.000780617	0.00279876	16.1955	-3.10501e-08
1778.29	351.895	101.863	366.342	-16.1442	34.487	3.3076	-9.16942e-05	0.878615	0.0679302	1	12	0.132407	0.00036143	-6.95947e-06	2.1919e-05	0.00262205	0.000759007	0.00272969	16.1442	-1.77217e-07
1585.51	360.975	103.675	375.568	-16.0244	35.2467	3.3076	-4.91407e-05	0.968232	0.0737813	1	12	0.132178	0.000351941	-7.28886e-06	-0.000298891	0.00255917	0.000735012	0.00266263	16.0244	-3.29392e-07
1411.84	370.442	105.073	385.055	-15.8355	36.0082	3.3076	-4.72373e-05	1.07287	0.0798876	1	12	0.131956	0.000342693	-7.44496e-06	0.000262526	0.00249847	0.00070867	0.00259703	15.8355	-1.56098e-07
1258.79	380.042	105.95	394.535	-15.5777	36.768	3.3076	-0.000101549	1.19334	0.0860595	1	12	0.131736	0.000333902	-7.76922e-06	-0.000298891	0.00244153	0.000680663	0.00253463	15.5777	-3.2426e-07
1121.79	389.845	106.308	404.08	-15.2532	37.5264	3.3076	-7.46174e-05	1.33457	0.0923711	1	12	0.13153	0.000325504	-7.55944e-06	0.000182324	0.00238758	0.000651072	0.00247476	15.2532	2.09781e-07
1000.32	399.66	106.065	413.494	-14.863	38.2857	3.3076	-6.33631e-05	1.50006	0.0986992	1	12	0.131346	0.000317648	-7.72306e-06	-5.82835e-05	0.0023375	0.000620344	0.00241841	14.863	-1.63628e-07
891.427	409.491	105.211	422.791	-14.4094	39.0434	3.3076	-6.18141e-05	1.69696	0.105086	1	12	0.131169	0.000310246	-7.97905e-06	-0.000619701	0.00229083	0.000588587	0.00236523	14.4094	-2.55988e-07
794.238	419.199	103.784	431.855	-13.9054	39.803	3.3076	-0.000145	1.93082	0.111512	1	12	0.131024	0.000303397	-7.80212e-06	-5.82835e-05	0.00224773	0.000556483	0.00231559	13.9054	1.76928e-07
707.509	428.641	101.792	440.562	-13.359	40.5654	3.3076	-6.31401e-05	2.2099	0.117975	1	12	0.130888	0.000297093	-8.0977e-06	0.000262526	0.00220841	0.000524446	0.00226983	13.359	-2.95575e-07
631.01	437.676	99.2932	448.798	-12.782	41.3235	3.3076	-7.23787e-05	2.54018	0.124337	1	12	0.130777	0.000291393	-8.34755e-06	0.000182324	0.00217296	0.000492967	0.00222817	12.782	-2.49851e-07
562.339	446.358	96.3344	456.635	-12.179	42.0799	3.3076	-7.09602e-05	2.93792	0.130757	1	12	0.130675	0.000286169	-8.4425e-06	-5.82835e-05	0.00214065	0.000462001	0.00218993	12.179	-9.49533e-08
501.444	454.485	93.0235	463.907	-11.5675	42.8372	3.3076	-7.64665e-05	3.41197	0.137192	1	12	0.130593	0.000281506	-8.58018e-06	0.000182324	0.00211182	0.000432246	0.0021556	11.5675	-1.37677e-07
446.859	462.124	89.4173	470.695	-10.951	43.5939	3.3076	-6.22448e-05	3.98316	0.143745	1	12	0.13052	0.000277291	-8.54675e-06	0.000262526	0.00208583	0.000403591	0.00212452	10.951	3.34344e-08
398.089	469.215	85.593	476.958	-10.3381	44.3567	3.30759	-5.8531e-05	4.67091	0.150425	1	12	0.130459	0.000273524	-8.41186e-06	2.1919e-05	0.00206259	0.000376252	0.00209662	10.3381	1.3489e-07
354.66	475.804	81.6903	482.766	-9.74207	45.1169	3.3076	-0.000125927	5.49336	0.157292	1	12	0.130408	0.000270126	-8.55802e-06	-0.000138486	0.00204153	0.000350507	0.0020714	9.74207	-1.46162e-07
316.316	481.64	77.8047	487.884	-9.17635	45.8739	3.3076	-6.7042e-05	6.46686	0.164464	1	12	0.130367	0.000267208	-8.36598e-06	0.000102121	0.00202344	0.000326868	0.00204967	9.17635	1.9204e-07
281.894	487.062	73.9375	492.642	-8.63177	46.6284	3.3076	-7.88939e-05	7.63606	0.172003	1	12	0.130327	0.000264548	-8.67418e-06	2.1919e-05	0.00200688	0.00030465	0.00202987	8.63177	-3.08202e-07
251.044	492.001	70.2281	496.988	-8.12351	47.3849	3.3076	-4.90132e-05	9.02732	0.180256	1	12	0.130297	0.000262173	-8.37274e-06	-0.000138486	0.00199193	0.000284328	0.00201212	8.12351	3.01444e-07
223.925	496.451	66.6606	500.906	-7.64761	48.1477	3.3076	-6.08087e-05	10.6622	0.188831	1	12	0.130273	0.000260076	-8.11896e-06	-5.82835e-05	0.00197863	0.000265679	0.00199638	7.64761	2.53775e-07
199.553	500.463	63.3129	504.452	-7.2101	48.9092	3.3076	-4.43286e-05	12.5971	0.198433	1	12	0.130252	0.000258205	-8.10204e-06	-5.82835e-05	0.00196667	0.000248801	0.00198235	7.2101	1.69247e-08
177.781	504.187	60.245	507.774	-6.81392	49.6762	3.3076	1.47253e-06	14.8598	0.209177	1	12	0.130238	0.000256487	-8.23065e-06	-0.000218689	0.00195547	0.000233658	0.00196938	6.81392	-1.28615e-07
158.428	507.549	57.4155	510.787	-6.45403	50.4428	3.3076	-6.16491e-05	17.4968	0.221074	1	12	0.130219	0.000254939	-8.04925e-06	0.000182324	0.00194536	0.000220065	0.00195777	6.45403	1.814e-07
141.311	510.738	54.8794	513.678	-6.13298	51.1959	3.3076	-4.97793e-05	20.5227	0.234246	1	12	0.130213	0.000253491	-8.22887e-06	-0.000539499	0.0019356	0.000207983	0.00194675	6.13298	-1.79616e-07
125.846	513.598	52.566	516.281	-5.8438	51.9514	3.3076	-4.76516e-05	24.059	0.249411	1	12	0.130198	0.000252184	-8.11028e-06	0.000102121	0.00192687	0.000197212	0.00193693	5.8438	1.18591e-07
112.19	516.331	50.5461	518.799	-5.59114	52.6969	3.3076	-5.31764e-05	28.0659	0.266413	1	12	0.130197	0.000250958	-8.01706e-06	2.1919e-05	0.00191836	0.000187797	0.00192753	5.59114	9.32188e-08
100.032	518.868	48.8108	521.159	-5.3741	53.4567	3.3076	-4.28371e-05	32.596	0.285928	1	12	0.130183	0.000249795	-8.16425e-06	2.1919e-05	0.00191037	0.000179711	0.0019188	5.3741	-1.47189e-07
89.116	521.355	47.3901	523.504	-5.1938	54.2237	3.30761	-1.19113e-05	37.6857	0.308825	1	12	0.130184	0.000248677	-8.36356e-06	0.000102121	0.00190236	0.000172921	0.00191021	5.1938	-1.9931e-07
79.4155	523.732	46.1764	525.764	-5.03862	54.9882	3.3076	-2.05528e-05	43.4005	0.334775	1	12	0.130177	0.000247596	-8.12613e-06	0.000182324	0.00189464	0.000167047	0.00190199	5.03862	2.37425e-07
70.8387	526.039	45.2303	527.98	-4.91437	55.7394	3.30759	-2.14669e-05	49.6729	0.36454	1	12	0.130173	0.00024655	-8.20441e-06	-0.000379094	0.00188705	0.000162254	0.00189401	4.91437	-7.82819e-08
63.0823	528.291	44.5405	530.165	-4.81924	56.5198	3.30761	-3.25348e-05	56.6445	0.399803	1	12	0.130167	0.000245522	-8.33845e-06	2.1919e-05	0.00187954	0.000158465	0.00188621	4.81924	-1.34038e-07
56.2418	530.516	44.1252	532.348	-4.75457	57.2633	3.3076	1.55438e-05	64.132	0.440611	1	12	0.130164	0.00024451	-8.26439e-06	0.000102121	0.00187201	0.000155702	0.00187847	4.75457	7.40585e-08
50.1444	532.785	43.889	534.59	-4.70919	58.0202	3.3076	-4.53937e-05	72.3173	0.487429	1	12	0.130163	0.000243482	-8.18749e-06	-0.000218689	0.00186428	0.000153573	0.00187059	4.70919	7.69044e-08
44.6712	535.008	43.8561	536.803	-4.68622	58.7842	3.3076	-3.82455e-05	81.2385	0.542242	1	12	0.130162	0.000242476	-8.32027e-06	0.000102121	0.00185665	0.000152195	0.00186288	4.68622	-1.32783e-07
39.8089	537.38	44.1024	539.187	-4.6917	59.5467	3.3076	-5.38669e-05	90.6521	0.606489	1	12	0.130163	0.000241406	-8.07041e-06	2.1919e-05	0.00184843	0.000151699	0.00185464	4.6917	2.49863e-07
35.4653	539.646	44.4785	541.476	-4.71176	60.2972	3.30759	-1.26386e-05	100.894	0.680781	1	12	0.130156	0.000240373	-8.52585e-06	-0.000218689	0.00184056	0.000151702	0.0018468	4.71176	-4.55444e-07
31.6296	541.975	45.123	543.85	-4.75927	61.0214	3.3076	-1.49155e-05	111.514	0.767655	1	12	0.130155	0.000239322	-8.50398e-06	0.000422931	0.0018324	0.000152559	0.00183874	4.75927	2.18689e-08
28.1701	544.478	45.9545	546.414	-4.82439	61.8268	3.30761	1.28751e-05	122.943	0.869594	1	12	0.130154	0.000238197	-7.85253e-06	2.1919e-05	0.00182363	0.000153916	0.00183011	4.82439	6.51451e-07
25.1044	546.985	46.9631	548.998	-4.90727	62.5829	3.3076	1.64771e-05	134.993	0.987839	1	12	0.130156	0.000237079	-7.70783e-06	0.000583336	0.00181482	0.000155817	0.0018215	4.90727	1.44697e-07
22.3854	549.569	48.2143	551.68	-5.01378	63.2694	3.30759	3.15107e-06	147.462	1.12631	1	12	0.130152	0.000235919	-8.44851e-06	0.000182324	0.00180571	0.000158417	0.00181264	5.01378	-7.40671e-07
19.9553	552.309	49.6336	554.535	-5.13513	64.0312	3.3076	-1.76405e-05	160.689	1.2873	1	12	0.130156	0.000234711	-8.32951e-06	-0.000218689	0.00179608	0.000161405	0.00180331	5.13513	1.18997e-07
17.7961	555.063	51.2645	557.426	-5.27675	64.8755	3.30759	-5.64146e-05	174.453	1.47549	1	12	0.130153	0.00023349	-8.45449e-06	0.000342729	0.00178636	0.000164984	0.00179396	5.27675	-1.24985e-07
15.8576	558.003	53.0774	560.522	-5.43363	65.598	3.3076	1.13259e-05	189.092	1.69554	1	12	0.130151	0.000232195	-7.92013e-06	2.1919e-05	0.00177603	0.000168937	0.00178405	5.43363	5.34365e-07
14.119	561.087	55.1394	563.79	-5.61258	66.4003	3.3076	1.68879e-05	204.435	1.95544	1	12	0.130155	0.000230857	-8.87095e-06	0.000743741	0.00176521	0.000173471	0.00177371	5.61258	-9.50823e-07
12.6008	564.23	57.3638	567.139	-5.80516	67.2909	3.3076	-5.56122e-05	220.183	2.25258	1	12	0.13015	0.000229484	-8.41657e-06	0.000102121	0.00175419	0.000178344	0.00176324	5.80516	4.54387e-07
11.2249	567.709	59.7511	570.844	-6.00824	67.9749	3.30759	-3.73308e-05	237.298	2.59986	1	12	0.130147	0.000227991	-8.98739e-06	-0.000379094	0.00174217	0.000183362	0.00175179	6.00824	-5.70821e-07
10.0032	571.253	62.4895	574.661	-6.24278	68.7357	3.3076	-3.05746e-05	254.609	3.01068	1	12	0.130146	0.000226475	-7.16584e-06	-5.82835e-05	0.00172984	0.000189227	0.00174016	6.24278	1.82155e-06
8.91838	575.02	65.3642	578.723	-6.48514	69.58	3.30759	4.35679e-05	273.02	3.48283	1	12	0.130151	0.000224894	-9.27452e-06	0.000102121	0.00171689	0.000195163	0.00172794	6.48514	-2.10868e-06
7.93953	578.964	68.4585	582.997	-6.74352	70.5187	3.3076	-3.81894e-05	292.818	4.03756	1	12	0.130145	0.000223234	-6.95281e-06	0.000102121	0.00170341	0.000201416	0.00171527	6.74352	2.32171e-06
7.07654	583.046	71.7214	587.44	-7.01282	71.077	3.30758	0.000146602	313.582	4.67434	1	12	0.130149	0.000221552	-6.91896e-06	-0.000138486	0.00168957	0.000207836	0.0017023	7.01282	3.38542e-08
6.31058	587.386	75.2354	592.185	-7.299	71.6972	3.30759	0.000281841	335.219	5.41077	1	12	0.13016	0.000219796	-7.32129e-06	0.000422931	0.00167498	0.00021454	0.00168866	7.299	-4.02333e-07
5.6205	591.94	79.1577	597.21	-7.61674	72.3837	3.3076	0.000427064	357.727	6.2847	1	12	0.130145	0.000217923	-8.73679e-06	-0.000218689	0.00165968	0.000221942	0.00167445	7.61674	-1.4155e-06
5.01444	597.113	83.0359	602.859	-7.91692	73.1412	3.30762	0.000107576	382.236	7.25158	1	12	0.130142	0.000215874	-1.04892e-05	-5.82835e-05	0.00164295	0.000228473	0.00165876	7.91692	-1.75241e-06
4.46939	602.101	87.1001	608.368	-8.23133	73.9825	3.30759	-0.000259543	408.84	8.38026	1	12	0.130153	0.000213938	-9.17999e-06	0.000182324	0.00162681	0.000235335	0.00164374	8.23133	1.30921e-06
3.97785	607.832	91.9151	614.742	-8.59901	74.9192	3.30759	-4.72508e-05	435.296	9.73135	1	12	0.130146	0.000211708	-6.03086e-06	-0.000218689	0.00160841	0.000243221	0.0016267	8.59901	3.14913e-06
3.55114	613.492	96.3817	621.017	-8.92838	75.9604	3.3076	0.000252603	465.006	11.2006	1	12	0.13015	0.000209575	-8.63292e-06	-0.000379094	0.00159075	0.000249912	0.00161026	8.92838	-2.60207e-06
3.1604	619.938	101.54	628.199	-9.30194	77.1233	3.3076	3.68858e-05	495.953	12.9575	1	12	0.130147	0.000207175	-1.10209e-05	-0.000298891	0.00157092	0.000257303	0.00159185	9.30194	-2.38793e-06
2.81836	626.189	106.859	635.241	-9.68418	78.4187	3.30761	-4.43553e-05	528.462	14.9539	1	12	0.130149	0.000204881	-5.36057e-06	2.1919e-05	0.00155177	0.000264808	0.0015742	9.68418	5.66029e-06
2.51367	633.06	112.114	642.911	-10.0429	79.8628	3.30762	0.000264545	564.743	17.1739	1	12	0.130145	0.000202432	-9.22436e-06	2.1919e-05	0.00153159	0.000271243	0.00155543	10.0429	-3.86379e-06
2.23982	640.599	118.029	651.381	-10.4395	81.4774	3.30761	2.81139e-05	602.031	19.7663	1	12	0.13015	0.000199806	-1.0262e-05	-5.82835e-05	0.00150979	0.000278175	0.0015352	10.4395	-1.03767e-06
1.99706	648.224	124.275	660.029	-10.8529	83.2816	3.30762	6.16715e-05	641.274	22.7347	1	12	0.130149	0.000197188	-4.00153e-06	-5.82835e-05	0.00148799	0.000285272	0.00151509	10.8529	6.2605e-06
1.77961	656.25	130.553	669.11	-11.2514	85.3	3.30762	0.000231692	685.028	26.0787	1	12	0.130146	0.000194506	-1.2981e-05	-0.000218689	0.0014658	0.000291602	0.00149452	11.2514	-8.97949e-06
1.58469	664.947	137.144	678.943	-11.6537	87.5591	3.30761	1.65959e-06	732.317	29.8805	1	12	0.13015	0.000191695	-3.98272e-06	0.000262526	0.00144252	0.000297517	0.00147288	11.6537	8.9983e-06
1.41224	674.175	144.017	689.386	-12.0583	90.0881	3.30762	0.000209657	782.524	34.1509	1	12	0.130147	0.000188787	-1.01319e-05	-0.000298891	0.00141856	0.000303033	0.00145057	12.0583	-6.1492e-06
1.25967	683.831	151.303	700.369	-12.4762	92.9169	3.30762	4.38011e-05	835.053	38.9722	1	12	0.130149	0.000185829	-8.20842e-06	-0.000138486	0.0013941	0.000308456	0.00142782	12.4762	1.92349e-06
1.12249	694.018	158.978	711.993	-12.9021	96.085	3.30762	0.000160245	891.872	44.4656	1	12	0.130147	0.000182792	-4.72969e-06	2.1919e-05	0.00136905	0.000313606	0.00140451	12.9021	3.47873e-06
1.00006	704.649	166.988	724.166	-13.3321	99.6342	3.30761	0.00016301	953.029	50.6761	1	12	0.130149	0.000179723	-1.31699e-05	2.1919e-05	0.00134368	0.000318427	0.0013809	13.3321	-8.44023e-06