File: utils/DE_206_8_30.mpt
EC-Lab ASCII FILE
Nb header lines : 60

Potentio Electrochemical Impedance Spectroscopy

Run on channel : 8 (SN 41406)
User :
CE vs. WE compliance from -10 V to 10 V
Electrode connection : standard
Ewe ctrl range : min = -5.00 V, max = 5.00 V
Acquisition started on : 12/03/2020 16:53:23
Technique started on : 12/03/2020 16:53:25
Saved on :
	File : DE_206_8_30.mpr
	Directory : P:\Chemistry\Data\VMP3\Kyler\DOE\DE_206\
	Host : 10.0.4.64
Device : VMP3 (SN 1432)
Address : USB
EC-Lab for windows v11.33 (software)
Internet server v11.32 (firmware)
Command interpretor v11.33 (firmware)
Electrode material :
Initial state :
Electrolyte :
Comments :
Electrode surface area : 0.001 cm²
Characteristic mass : 0.001 g
Equivalent Weight : 0.000 g/eq.
Density : 0.000 g/cm3
Record Analogic IN 1
Cycle Definition : Charge/Discharge alternance
Mode                Single sine
E (V)               0.0000
vs.                 Eoc
tE (h:m:s)          0:00:0.0000
record              0
dI                  1.000
unit dI             mA
dt (s)              0.000
fi                  1.000
unit fi             MHz
ff                  1.000
unit ff             Hz
Nd                  20
Points              per decade
spacing             Logarithmic
Va (mV)             128.0
pw                  0.50
Na                  3
corr                0
E range min (V)     -5.000
E range max (V)     5.000
I Range             Auto
Bandwidth           5
nc cycles           0
goto Ns'            0
nr cycles           0
inc. cycle          1

freq/Hz	Re(Z)/Ohm	-Im(Z)/Ohm	|Z|/Ohm	Phase(Z)/deg	time/s	<Ewe>/V	<I>/mA	Cs/µF	Cp/µF	cycle number	I Range	|Ewe|/V	|I|/A	(Q-Qo)/mA.h	Analog IN 1/V	Re(Y)/Ohm-1	Im(Y)/Ohm-1	|Y|/Ohm-1	Phase(Y)/deg	dq/mA.h
1.00002e+06	154.027	107.911	188.067	-35.0149	2.9635	3.32636	0.000583986	0.00147485	0.000485571	1	11	0.00017789	9.45886e-07	-2.01713e-05	0.00147992	0.00435486	0.00305099	0.00531726	35.0149	-2.01713e-05
891247	153.257	98.4372	182.147	-32.7127	3.5595	3.32578	-0.000297292	0.00181411	0.00052983	1	11	0.00129169	7.09148e-06	-2.02348e-05	0.00147992	0.00461929	0.00296698	0.00549007	32.7127	-6.34729e-08
794333	161.948	98.8958	189.756	-31.411	4.15448	3.32547	-0.000658561	0.002026	0.000550305	1	11	0.00315749	1.66397e-05	-2.0371e-05	0.00115893	0.00449762	0.00274654	0.00526992	31.411	-1.36127e-07
707950	171.983	99.7792	198.832	-30.121	4.75048	3.3253	-0.000867981	0.00225309	0.000567395	1	11	0.00590778	2.97124e-05	-2.05627e-05	0.00115893	0.00435025	0.00252388	0.00502938	30.121	-1.91713e-07
630957	181.775	100.306	207.614	-28.8906	5.34648	3.32518	-0.00101852	0.00251473	0.000586997	1	11	0.00964787	4.64702e-05	-2.05352e-05	0.000837946	0.00421717	0.0023271	0.00481663	28.8906	2.74357e-08
562342	191.477	100.561	216.278	-27.7077	5.9415	3.32514	-0.000915491	0.00281444	0.000608449	1	11	0.0144318	6.67279e-05	-2.06666e-05	0.00123918	0.00409349	0.00214983	0.00462369	27.7077	-1.31404e-07
501206	201.173	100.436	224.851	-26.5307	6.53849	3.32507	-0.000992998	0.00316165	0.000630817	1	11	0.0203011	9.02867e-05	-2.09583e-05	0.00115893	0.00397905	0.00198655	0.00444739	26.5307	-2.91661e-07
446686	210.547	99.9562	233.07	-25.3958	7.13349	3.32504	-0.00108858	0.00356458	0.000655626	1	11	0.0272304	0.000116834	-2.08092e-05	0.00164042	0.00387595	0.00184009	0.00429056	25.3958	1.49095e-07
398103	219.86	98.9353	241.095	-24.2274	7.72948	3.32505	-0.00103734	0.00404085	0.000680457	1	11	0.0352552	0.00014623	-2.08835e-05	0.000918193	0.00378243	0.00170207	0.00414775	24.2274	-7.42962e-08
354810	228.538	97.5292	248.479	-23.1105	8.32449	3.32501	-0.00106435	0.00459928	0.000708566	1	11	0.044336	0.00017843	-2.13366e-05	0.00115893	0.00370152	0.00157963	0.00402449	23.1105	-4.53108e-07
316230	236.923	95.7942	255.557	-22.0148	8.92048	3.32497	-0.00117875	0.00525385	0.000738214	1	11	0.0545691	0.00021353	-2.14742e-05	0.00107869	0.00362772	0.00146678	0.00391303	22.0148	-1.37632e-07
281835	245.092	93.7398	262.407	-20.9302	9.51548	3.32492	-0.00113851	0.00602423	0.000768776	1	11	0.0659421	0.000251297	-2.16001e-05	0.00115893	0.00355942	0.00136136	0.00381088	20.9302	-1.25873e-07
251188	253.008	91.3361	268.99	-19.8496	10.1105	3.3249	-0.0011726	0.00693712	0.000799823	1	11	0.0785665	0.00029208	-2.22593e-05	0.00147992	0.00349674	0.00126233	0.00371762	19.8496	-6.59192e-07
223872	260.319	88.7177	275.021	-18.8193	10.7055	3.32489	-0.00124023	0.00801328	0.00083387	1	11	0.0922843	0.000335553	-2.31457e-05	0.00147992	0.0034417	0.00117294	0.00363608	18.8193	-8.86437e-07
199544	267.369	86.0634	280.879	-17.8428	11.3025	3.32488	-0.00118937	0.00926753	0.000870085	1	11	0.107203	0.00038167	-2.37088e-05	0.00099844	0.003389	0.00109089	0.00356025	17.8428	-5.63057e-07
177832	274.012	83.2831	286.389	-16.9061	11.7615	3.32484	-0.00128793	0.0107462	0.000908771	1	11	0.123318	0.000430595	-2.4086e-05	0.00147992	0.00334085	0.00101542	0.00349175	16.9061	-3.77217e-07
158486	280.323	80.4413	291.637	-16.0113	12.2215	3.32479	-0.00148412	0.0124839	0.000949781	1	11	0.14054	0.0004819	-2.39848e-05	0.00115893	0.00329591	0.00094579	0.00342892	16.0113	1.01204e-07
141256	286.363	77.5648	296.682	-15.1556	12.8175	3.32486	-0.00125029	0.0145261	0.000992879	1	11	0.130594	0.000440181	-2.33074e-05	0.00131943	0.00325338	0.000881217	0.00337062	15.1556	6.77402e-07
125909	292.01	74.7517	301.426	-14.3588	13.4145	3.32487	-0.00128793	0.0169099	0.00103997	1	11	0.129946	0.000431105	-2.35634e-05	0.00131943	0.00321393	0.000822736	0.00331757	14.3588	-2.55954e-07
112205	297.379	71.913	305.95	-13.5945	14.0105	3.32488	-0.00125644	0.0197243	0.00108972	1	11	0.129764	0.000424135	-2.42385e-05	0.00172066	0.00317693	0.000768256	0.00326851	13.5945	-6.75164e-07
100004	302.469	69.1318	310.269	-12.8743	14.6065	3.32493	-0.00109379	0.0230211	0.00114289	1	11	0.129569	0.000417601	-2.46991e-05	0.00115893	0.00314199	0.000718129	0.00322301	12.8743	-4.60562e-07
89129.3	307.222	66.4131	314.319	-12.1981	15.2025	3.32493	-0.00118527	0.0268872	0.00120036	1	11	0.129624	0.000412397	-2.51684e-05	0.00123918	0.00310966	0.000672224	0.00318149	12.1981	-4.69289e-07
79433.3	311.732	63.765	318.187	-11.5604	15.7975	3.32492	-0.00121825	0.0314221	0.00126193	1	11	0.12948	0.00040693	-2.51412e-05	0.00156017	0.00307905	0.000629822	0.00314281	11.5604	2.72161e-08
70795	315.96	61.174	321.827	-10.9576	16.3935	3.32495	-0.00114745	0.0367495	0.00132782	1	11	0.129175	0.00040138	-2.44027e-05	0.00123918	0.00305061	0.000590638	0.00310726	10.9576	7.38433e-07
63093.8	319.967	58.7403	325.314	-10.4027	16.8535	3.32496	-0.00116217	0.0429435	0.00140012	1	11	0.139697	0.000429421	-2.4351e-05	0.00139967	0.00302343	0.000555049	0.00307396	10.4027	5.16976e-08
56237	323.782	56.4272	328.662	-9.88597	17.4495	3.32498	-0.00113869	0.0501544	0.00147839	1	11	0.130315	0.000396503	-2.51631e-05	0.00131943	0.00299746	0.000522385	0.00304264	9.88597	-8.12035e-07
50122.5	327.253	54.1832	331.709	-9.40115	17.9095	3.32498	-0.00111316	0.0586034	0.00156365	1	11	0.138928	0.000418826	-2.55002e-05	0.00115893	0.0029742	0.000492437	0.00301469	9.40115	-3.37182e-07
44666.7	330.574	52.063	334.649	-8.95015	18.5055	3.32498	-0.00120651	0.0684395	0.00165648	1	11	0.129898	0.000388163	-2.6425e-05	0.00139967	0.00295182	0.00046489	0.00298821	8.95015	-9.24773e-07
39814.1	333.773	50.1786	337.524	-8.54967	18.9655	3.32499	-0.00116254	0.0796646	0.00176073	1	11	0.13648	0.000404358	-2.66877e-05	0.00139967	0.00292983	0.000440463	0.00296275	8.54967	-2.62687e-07
35481	336.743	48.4204	340.206	-8.1825	19.5605	3.32498	-0.00120614	0.0926394	0.00187658	1	11	0.12941	0.000380386	-2.62476e-05	0.00139967	0.00290947	0.000418354	0.00293939	8.1825	4.40146e-07
31621.1	339.596	46.7561	342.8	-7.83927	20.0205	3.32499	-0.00120837	0.107648	0.00200262	1	11	0.134212	0.000391518	-2.66217e-05	0.00147992	0.00288989	0.000397884	0.00291715	7.83927	-3.7416e-07
28188.1	342.262	45.367	345.256	-7.55057	20.4805	3.32501	-0.00121899	0.124455	0.00214889	1	11	0.138385	0.00040082	-2.68947e-05	0.00147992	0.00287129	0.000380591	0.0028964	7.55057	-2.73023e-07
25116.9	344.891	44.0653	347.695	-7.28099	21.0755	3.325	-0.00123427	0.1438	0.00230969	1	11	0.129439	0.000372278	-2.71732e-05	0.00139967	0.0028529	0.000364502	0.00287609	7.28099	-2.78508e-07
22389	347.362	42.9572	350.008	-7.04981	21.5345	3.32499	-0.00127936	0.165481	0.00249267	1	11	0.132204	0.000377718	-2.7561e-05	0.00147992	0.00283548	0.000350655	0.00285708	7.04981	-3.87789e-07
19948.8	349.759	42.0217	352.275	-6.85095	21.9945	3.325	-0.00120614	0.189858	0.00270156	1	11	0.134504	0.000381816	-2.79617e-05	0.00139967	0.00281843	0.000338619	0.0028387	6.85095	-4.00648e-07
17786.9	352.098	41.2258	354.503	-6.67813	22.4545	3.32498	-0.00127228	0.217046	0.00293528	1	11	0.136407	0.000384785	-2.84335e-05	0.000837946	0.00280171	0.000328042	0.00282085	6.67813	-4.71849e-07
15847.7	354.415	40.5876	356.732	-6.53305	22.9135	3.32499	-0.00129054	0.247435	0.00320305	1	11	0.137971	0.000386763	-2.88924e-05	0.00156017	0.00278502	0.00031894	0.00280323	6.53305	-4.58848e-07
14121.9	356.664	40.1556	358.918	-6.42369	23.3725	3.32501	-0.00122868	0.280661	0.00351305	1	11	0.139236	0.000387932	-2.90024e-05	0.00131943	0.00276866	0.000311714	0.00278615	6.42369	-1.10045e-07
12590.9	358.878	39.9368	361.094	-6.34988	23.8325	3.325	-0.00122943	0.316511	0.00387165	1	11	0.14025	0.000388405	-2.94823e-05	0.00099844	0.00275238	0.000306291	0.00276937	6.34988	-4.79909e-07
11217.7	361.164	39.8154	363.352	-6.291	24.4285	3.325	-0.00120875	0.35634	0.0042787	1	11	0.129346	0.000355979	-3.04132e-05	0.00131943	0.00273558	0.000301576	0.00275215	6.291	-9.30856e-07
10002.2	363.402	39.9266	365.589	-6.26987	24.8885	3.32501	-0.00124787	0.39853	0.00475334	1	11	0.12993	0.000355399	-3.03465e-05	0.00139967	0.00271895	0.000298728	0.00273531	6.26987	6.66993e-08
8914.93	365.673	40.1861	367.875	-6.27142	25.3709	3.32504	-0.00120129	0.444249	0.00530124	1	11	0.130409	0.000354492	-3.06386e-05	0.00123918	0.00270205	0.000296945	0.00271831	6.27142	-2.9213e-07
7944	368.061	40.5539	370.288	-6.28763	25.897	3.32504	-0.0012529	0.494025	0.00592562	1	11	0.130782	0.00035319	-3.05923e-05	0.00099844	0.00268435	0.000295769	0.0027006	6.28763	4.63534e-08
7082.23	370.473	41.1232	372.748	-6.33401	26.4739	3.32504	-0.00128979	0.546466	0.00665128	1	11	0.131072	0.000351637	-3.06551e-05	0.00107869	0.0026664	0.000295975	0.00268277	6.33401	-6.28197e-08
6307.73	372.966	41.8673	375.308	-6.40492	27.1075	3.32504	-0.00145375	0.60266	0.00749971	1	11	0.1313	0.000349846	-3.11131e-05	0.00172066	0.00264784	0.000297234	0.00266447	6.40492	-4.57986e-07
5621.06	375.613	42.6582	378.028	-6.47929	27.8083	3.32507	-0.0013809	0.663743	0.00845195	1	11	0.131484	0.000347815	-3.16491e-05	0.00147992	0.00262841	0.000298507	0.00264531	6.47929	-5.36059e-07
5011.6	378.347	43.6687	380.859	-6.58393	28.5687	3.32507	-0.00133153	0.727232	0.00956062	1	11	0.131619	0.000345585	-3.21991e-05	0.00131943	0.00260833	0.000301053	0.00262565	6.58393	-5.49996e-07
4466.43	381.289	44.7388	383.905	-6.69223	29.3287	3.32508	-0.0012598	0.796481	0.0108167	1	11	0.131727	0.000343124	-3.2769e-05	0.00115893	0.00258706	0.000303554	0.00260481	6.69223	-5.69861e-07
3981.27	384.377	46.1548	387.138	-6.84712	30.3397	3.32506	6.86779e-05	0.866126	0.0123107	1	12	0.130758	0.000337755	-3.286e-05	0.00139967	0.00256463	0.000307953	0.00258306	6.84712	-9.10415e-08
3546.6	387.627	47.4389	390.519	-6.97733	31.099	3.32506	2.53294e-05	0.945962	0.0139591	1	12	0.131332	0.000336302	-3.2561e-05	0.00147992	0.00254173	0.000311064	0.00256069	6.97733	2.99057e-07
3161.01	391.081	48.7471	394.108	-7.10511	31.8587	3.32506	6.43556e-05	1.03287	0.0158021	1	12	0.131759	0.000334323	-3.23137e-05	0.00139967	0.00251789	0.000313848	0.00253738	7.10511	2.47231e-07
2817.3	394.753	50.0952	397.919	-7.23232	32.618	3.32506	5.12044e-05	1.1277	0.0178729	1	12	0.132065	0.000331889	-3.20487e-05	0.00172066	0.00249308	0.000316378	0.00251307	7.23232	2.64998e-07
2510.8	398.59	51.4177	401.892	-7.35051	33.3777	3.32505	5.47996e-05	1.23281	0.020179	1	12	0.132272	0.000329122	-3.18899e-05	0.00156017	0.00246778	0.000318341	0.00248823	7.35051	1.58808e-07
2237.85	402.713	52.7747	406.157	-7.46594	34.1369	3.32506	4.55221e-05	1.34761	0.0227524	1	12	0.132411	0.00032601	-3.20142e-05	0.000918193	0.00244123	0.000319918	0.0024621	7.46594	-1.24213e-07
1995.64	407.008	54.0133	410.576	-7.55946	34.8967	3.32505	5.93446e-05	1.47651	0.0255536	1	12	0.132494	0.000322701	-3.19217e-05	0.00147992	0.00241443	0.000320415	0.0024356	7.55946	9.24347e-08
1778.29	411.588	55.1585	415.267	-7.63296	35.6559	3.32507	6.70381e-05	1.62257	0.0286269	1	12	0.132541	0.00031917	-3.20386e-05	0.00131943	0.00238675	0.000319858	0.00240809	7.63296	-1.16879e-07
1585.51	416.325	56.1553	420.095	-7.68188	36.4157	3.32506	3.86111e-05	1.78756	0.0319409	1	12	0.132545	0.000315512	-3.22691e-05	0.00156017	0.00235905	0.000318196	0.00238041	7.68188	-2.3048e-07
1411.84	421.329	57.0035	425.167	-7.70502	37.1762	3.32506	6.43742e-05	1.97758	0.0355482	1	12	0.132538	0.000311731	-3.2055e-05	0.00123918	0.00233078	0.000315342	0.00235202	7.70502	2.14119e-07
1258.79	426.425	57.5811	430.295	-7.69026	37.9359	3.32506	3.89645e-05	2.19577	0.03932	1	12	0.132513	0.000307957	-3.1854e-05	0.00172066	0.00230309	0.000310991	0.00232399	7.69026	2.00917e-07
1121.79	431.639	57.879	435.503	-7.6373	38.6944	3.32505	3.67106e-05	2.45124	0.0432958	1	12	0.132475	0.000304188	-3.19883e-05	0.000757699	0.00227583	0.000305168	0.0022962	7.6373	-1.34239e-07
1000.32	436.925	57.9591	440.753	-7.55629	39.4537	3.32506	2.74334e-05	2.74511	0.0474693	1	12	0.132433	0.000300471	-3.17438e-05	0.00139967	0.00224914	0.000298354	0.00226885	7.55629	2.44456e-07
891.427	442.234	57.6858	445.98	-7.43181	40.2124	3.32506	3.96535e-05	3.09504	0.0517812	1	12	0.132387	0.000296844	-3.15396e-05	0.00147992	0.00222342	0.000290026	0.00224225	7.43181	2.0424e-07
794.238	447.523	57.101	451.151	-7.27127	40.9719	3.32506	1.12078e-05	3.50935	0.0562172	1	12	0.132345	0.000293349	-3.17374e-05	0.000757699	0.00219873	0.000280543	0.00221655	7.27127	-1.97842e-07
707.509	452.714	56.2698	456.197	-7.08522	41.7344	3.32506	4.92097e-05	3.99772	0.0608217	1	12	0.132295	0.000289995	-3.14537e-05	0.00172066	0.0021753	0.000270377	0.00219203	7.08522	2.83695e-07
631.01	457.738	55.145	461.048	-6.86948	42.4924	3.32506	2.82151e-05	4.57381	0.0654332	1	12	0.132261	0.000286871	-3.12199e-05	0.00147992	0.0021534	0.000259426	0.00216897	6.86948	2.33881e-07
562.339	462.554	53.7686	465.669	-6.63047	43.2489	3.32506	2.36137e-05	5.26372	0.0701773	1	12	0.132218	0.000283932	-3.11203e-05	0.00156017	0.00213309	0.000247956	0.00214745	6.63047	9.95263e-08
501.444	467.117	52.1764	470.022	-6.37345	44.0062	3.32506	1.8435e-05	6.08308	0.074961	1	12	0.132186	0.000281233	-3.10155e-05	0.00131943	0.00211441	0.000236177	0.00212756	6.37345	1.04816e-07
446.859	471.449	50.4858	474.144	-6.11231	44.7629	3.32506	1.1412e-05	7.05474	0.079983	1	12	0.132148	0.000278709	-3.10687e-05	0.00107869	0.00209707	0.000224568	0.00210906	6.11231	-5.3233e-08
398.089	475.515	48.5795	477.99	-5.83322	45.5257	3.32506	8.76676e-06	8.22974	0.0850073	1	12	0.132126	0.00027642	-3.12247e-05	0.00164042	0.00208126	0.000212626	0.0020921	5.83322	-1.55942e-07
354.66	479.24	46.6502	481.505	-5.55977	46.285	3.32506	-3.40601e-05	9.61956	0.0902941	1	12	0.132103	0.000274354	-3.11557e-05	0.000918193	0.00206705	0.000201211	0.00207682	5.55977	6.89682e-08
316.316	482.679	44.7505	484.749	-5.2969	47.0419	3.32506	1.91054e-05	11.2435	0.0958213	1	12	0.132086	0.000272484	-3.11825e-05	0.00172066	0.00205411	0.000190442	0.00206292	5.2969	-2.67614e-08
281.894	485.845	42.8699	487.732	-5.0426	47.7974	3.32506	5.13398e-06	13.1699	0.101747	1	12	0.132066	0.000270776	-3.12757e-05	0.00139967	0.00204237	0.000180214	0.00205031	5.0426	-9.3193e-08
251.044	488.759	41.027	490.478	-4.79823	48.5539	3.32506	-5.29096e-07	15.4525	0.108119	1	12	0.132051	0.000269229	-3.15673e-05	0.00156017	0.00203168	0.000170542	0.00203883	4.79823	-2.91677e-07
223.925	491.452	39.3083	493.022	-4.57301	49.3167	3.32506	5.32012e-06	18.0814	0.11494	1	12	0.132038	0.000267813	-3.18136e-05	0.000757699	0.00202185	0.000161716	0.00202831	4.57301	-2.46244e-07
199.553	493.855	37.6828	495.291	-4.36341	50.0772	3.32506	2.62959e-05	21.165	0.122514	1	12	0.132029	0.000266568	-3.17447e-05	0.00115893	0.00201316	0.000153611	0.00201902	4.36341	6.89345e-08
177.781	496.115	36.2425	497.437	-4.17819	50.8443	3.32506	3.50694e-05	24.7011	0.131122	1	12	0.132016	0.000265393	-3.14763e-05	0.00123918	0.00200496	0.000146468	0.0020103	4.17819	2.68327e-07
158.428	498.224	34.9145	499.446	-4.00862	51.6108	3.32506	-1.45381e-05	28.7727	0.14061	1	12	0.13201	0.000264313	-3.14203e-05	0.00115893	0.00199732	0.000139968	0.00200222	4.00862	5.60412e-08
141.311	500.177	33.7249	501.313	-3.85738	52.3639	3.32505	1.25848e-05	33.3958	0.151139	1	12	0.132004	0.000263316	-3.15915e-05	0.00164042	0.00199024	0.000134194	0.00199476	3.85738	-1.71205e-07
125.846	502.047	32.7594	503.115	-3.73335	53.1194	3.32505	-2.80623e-05	38.6052	0.163676	1	12	0.132003	0.000262372	-3.14005e-05	0.00139967	0.0019834	0.00012942	0.00198762	3.73335	1.90967e-07
112.19	503.832	31.9249	504.843	-3.62565	53.8649	3.32505	-4.2367e-06	44.4361	0.177698	1	12	0.131995	0.000261458	-3.11131e-05	0.00139967	0.00197685	0.000125261	0.00198081	3.62565	2.87403e-07
100.032	505.537	31.2837	506.504	-3.54107	54.6247	3.32505	-4.96324e-06	50.8584	0.194014	1	12	0.131989	0.000260587	-3.10361e-05	0.00139967	0.00197055	0.000121942	0.00197432	3.54107	7.70354e-08
89.116	507.254	30.7776	508.187	-3.47216	55.3917	3.32506	1.14109e-05	58.027	0.21284	1	12	0.13199	0.000259728	-3.11711e-05	0.00115893	0.00196417	0.000119176	0.00196778	3.47216	-1.35009e-07
79.4155	508.873	30.4659	509.784	-3.42617	56.1562	3.32505	-5.33599e-06	65.7811	0.23494	1	12	0.131986	0.000258905	-3.0987e-05	0.00139967	0.00195811	0.000117231	0.00196162	3.42617	1.84139e-07
70.8387	510.49	30.2508	511.385	-3.39129	56.9074	3.32505	-1.31789e-05	74.2699	0.25989	1	12	0.131981	0.000258086	-3.11193e-05	0.00172066	0.00195205	0.000115675	0.00195547	3.39129	-1.32309e-07
63.0823	512.12	30.2598	513.013	-3.38152	57.6878	3.32506	-1.71278e-05	83.3772	0.290082	1	12	0.131983	0.000257271	-3.10733e-05	0.00164042	0.00194587	0.000114976	0.00194927	3.38152	4.60147e-08
56.2418	513.743	30.4053	514.642	-3.38703	58.4314	3.32506	2.86421e-05	93.0704	0.324862	1	12	0.131981	0.000256452	-3.1293e-05	0.000837946	0.0019397	0.000114799	0.0019431	3.38703	-2.19755e-07
50.1444	515.404	30.7025	516.318	-3.40907	59.1882	3.32506	3.70247e-05	103.377	0.365542	1	12	0.131976	0.000255611	-3.14508e-05	0.00107869	0.00193337	0.00011517	0.00193679	3.40907	-1.57827e-07
44.6712	517.127	31.0873	518.06	-3.44022	59.9522	3.32506	2.40966e-05	114.606	0.412681	1	12	0.131977	0.000254751	-3.14584e-05	0.00139967	0.0019268	0.00011583	0.00193028	3.44022	-7.56222e-09
39.8089	518.876	31.6602	519.841	-3.49168	60.7147	3.32506	2.59898e-06	126.277	0.468395	1	12	0.131976	0.000253878	-3.12193e-05	0.00131943	0.00192009	0.000117158	0.00192366	3.49168	2.3909e-07
35.4653	520.668	32.3513	521.672	-3.55545	61.4651	3.32505	-3.25044e-06	138.716	0.533472	1	12	0.131971	0.000252976	-3.14899e-05	0.00131943	0.00191322	0.000118876	0.00191691	3.55545	-2.70584e-07
31.6296	522.529	33.1643	523.58	-3.63163	62.1894	3.32505	2.1041e-05	151.725	0.60874	1	12	0.131969	0.000252051	-3.17802e-05	0.00147992	0.00190609	0.000120978	0.00190993	3.63163	-2.90359e-07
28.1701	524.468	34.121	525.577	-3.72232	62.9938	3.32506	4.89646e-05	165.581	0.697881	1	12	0.131979	0.000251114	-3.17173e-05	0.00172066	0.00189866	0.000123524	0.00190267	3.72232	6.29847e-08
25.1044	526.493	35.2002	527.668	-3.82498	63.7499	3.32506	-1.18576e-05	180.104	0.801481	1	12	0.131972	0.000250105	-3.15755e-05	0.00147992	0.00189091	0.000126422	0.00189513	3.82498	1.41757e-07
22.3854	528.56	36.4098	529.812	-3.94059	64.4364	3.32503	-0.000109042	195.271	0.922209	1	12	0.131976	0.000249099	-3.15903e-05	0.00107869	0.001883	0.00012971	0.00188746	3.94059	-1.48067e-08
19.9553	530.706	37.7809	532.049	-4.07201	65.1982	3.32506	1.90468e-05	211.101	1.06446	1	12	0.131964	0.00024803	-3.117e-05	0.00156017	0.00187478	0.000133466	0.00187953	4.07201	4.20317e-07
17.7961	533.076	39.1989	534.515	-4.20559	66.0426	3.32504	-4.94647e-06	228.15	1.22701	1	12	0.131967	0.000246891	-3.11824e-05	0.00131943	0.00186582	0.0001372	0.00187085	4.20559	-1.23648e-08
15.8576	535.453	40.7954	537.005	-4.35687	66.7639	3.32504	5.8707e-05	246.021	1.41984	1	12	0.131968	0.000245749	-3.21749e-05	0.00107869	0.0018568	0.000141467	0.00186218	4.35687	-9.92509e-07
14.119	538.054	42.5407	539.733	-4.52063	67.5662	3.32505	-2.1395e-05	264.98	1.64613	1	12	0.131974	0.000244517	-3.19375e-05	0.00147992	0.00184701	0.000146032	0.00185277	4.52063	2.37403e-07
12.6008	540.674	44.3633	542.491	-4.69072	68.4569	3.32504	-6.07287e-05	284.707	1.90397	1	12	0.131971	0.000243268	-3.11082e-05	0.00204165	0.00183718	0.000150744	0.00184335	4.69072	8.29255e-07
11.2249	543.519	46.3376	545.491	-4.87296	69.1409	3.32504	1.1708e-05	305.989	2.208	1	12	0.131974	0.000241936	-3.26855e-05	0.00099844	0.00182659	0.000155725	0.00183321	4.87296	-1.57728e-06
10.0032	546.38	48.472	548.526	-5.06971	69.9017	3.32505	-3.20876e-05	328.239	2.56317	1	12	0.131969	0.000240589	-3.17497e-05	0.00164042	0.00181594	0.0001611	0.00182307	5.06971	9.35837e-07
8.91838	549.495	50.7182	551.831	-5.27343	70.744	3.32504	-3.77506e-05	351.861	2.97225	1	12	0.131968	0.000239146	-3.20583e-05	0.00180091	0.00180448	0.000166553	0.00181215	5.27343	-3.08596e-07
7.93953	552.785	53.0998	555.329	-5.48692	71.6817	3.32504	-2.39562e-05	377.513	3.45157	1	12	0.131969	0.000237641	-3.13831e-05	0.00188116	0.00179248	0.000172183	0.00180073	5.48692	6.75196e-07
7.07654	556.217	55.6314	558.992	-5.71159	72.24	3.32502	-3.13424e-05	404.277	4.00413	1	12	0.131972	0.000236089	-3.10779e-05	0.00131943	0.00178005	0.000178036	0.00178893	5.71159	3.05171e-07
6.31058	559.772	58.0792	562.777	-5.92353	72.8602	3.325	0.000238285	434.24	4.62486	1	12	0.131957	0.000234475	-3.03883e-05	0.00115893	0.00176741	0.000183378	0.0017769	5.92353	6.89538e-07
5.6205	563.43	60.9317	566.715	-6.17222	73.5457	3.32503	0.000379545	464.731	5.37228	1	12	0.131972	0.000232872	-3.04238e-05	0.00131943	0.00175433	0.00018972	0.00176456	6.17222	-3.54835e-08
5.01444	567.23	63.9985	570.829	-6.43725	74.3032	3.32507	0.000492601	495.938	6.23383	1	12	0.13197	0.000231189	-3.25829e-05	0.00123918	0.00174079	0.000196407	0.00175184	6.43725	-2.15904e-06
4.46939	571.647	67.1437	575.577	-6.69907	75.1445	3.32504	4.7046e-05	530.354	7.21722	1	12	0.131965	0.000229275	-3.45057e-05	0.00156017	0.00172553	0.000202674	0.00173739	6.69907	-1.92282e-06
3.97785	575.821	70.3893	580.108	-6.96935	76.0812	3.32504	-0.000275151	568.414	8.36877	1	12	0.131968	0.000227489	-3.14997e-05	0.00156017	0.00171108	0.000209165	0.00172382	6.96935	3.00604e-06
3.55114	580.634	73.8914	585.317	-7.25247	77.1224	3.32504	3.90544e-05	606.539	9.66639	1	12	0.131966	0.000225461	-2.94461e-05	0.00139967	0.00169481	0.000215681	0.00170848	7.25247	2.05355e-06
3.1604	585.365	77.5473	590.48	-7.54642	78.2842	3.32504	0.000157391	649.399	11.2004	1	12	0.131964	0.000223486	-3.47277e-05	0.00139967	0.00167887	0.000222411	0.00169354	7.54642	-5.28156e-06
2.81836	590.54	81.1001	596.083	-7.81964	79.5787	3.32505	-0.000143616	696.309	12.8894	1	12	0.131967	0.00022139	-3.20293e-05	0.00172066	0.00166202	0.000228249	0.00167762	7.81964	2.69838e-06
2.51367	596.025	85.2415	602.09	-8.13906	81.0227	3.32505	2.39776e-05	742.78	14.8881	1	12	0.131966	0.00021918	-2.9016e-05	0.00115893	0.00164415	0.000235141	0.00166088	8.13906	3.01332e-06
2.23982	601.569	89.438	608.182	-8.45647	82.6373	3.32505	0.000119058	794.483	17.1815	1	12	0.131964	0.000216981	-3.64391e-05	0.00139967	0.00162637	0.000241799	0.00164425	8.45647	-7.42309e-06
1.99706	607.425	93.6598	614.603	-8.76549	84.4407	3.32505	-0.000159767	850.895	19.7602	1	12	0.131964	0.000214715	-2.81718e-05	0.00115893	0.00160806	0.000247949	0.00162707	8.76549	8.2673e-06
1.77961	613.864	98.13	621.657	-9.08226	86.4589	3.32505	0.000140939	911.366	22.7088	1	12	0.131965	0.000212279	-3.3516e-05	0.00115893	0.00158844	0.000253922	0.0016086	9.08226	-5.34421e-06
1.58469	620.608	102.969	629.092	-9.42052	88.718	3.32506	-7.17938e-05	975.37	26.131	1	12	0.131967	0.000209773	-3.3389e-05	0.00131943	0.00156815	0.000260183	0.00158959	9.42052	1.26922e-07
1.41224	627.542	108.13	636.789	-9.77645	91.2472	3.32505	-2.7813e-05	1042.24	30.0514	1	12	0.131964	0.000207233	-2.75849e-05	0.00156017	0.00154757	0.000266657	0.00157038	9.77645	5.8041e-06
1.25967	634.717	113.371	644.762	-10.1272	94.0759	3.32506	9.71406e-05	1114.45	34.456	1	12	0.131965	0.000204672	-3.86425e-05	0.00115893	0.00152679	0.000272711	0.00155096	10.1272	-1.10575e-05
1.12249	642.336	118.815	653.233	-10.4797	97.2442	3.32505	-0.000133224	1193.35	39.4797	1	12	0.131965	0.000202019	-2.3789e-05	0.00131943	0.00150531	0.000278442	0.00153085	10.4797	1.48535e-05
1.00006	650.409	124.527	662.223	-10.8387	100.793	3.32505	0.000140835	1277.99	45.1906	1	12	0.131964	0.000199275	-4.07465e-05	0.00147992	0.00148313	0.000283959	0.00151007	10.8387	-1.69575e-05