File: utils/DE_206_13_30.mpt
EC-Lab ASCII FILE
Nb header lines : 60

Potentio Electrochemical Impedance Spectroscopy

Run on channel : 13 (SN 41494)
User :
CE vs. WE compliance from -10 V to 10 V
Electrode connection : standard
Ewe ctrl range : min = -10.00 V, max = 10.00 V
Acquisition started on : 12/03/2020 16:52:36
Technique started on : 12/03/2020 16:52:37
Saved on :
	File : DE_206_13_30.mpr
	Directory : P:\Chemistry\Data\VMP3\Kyler\DOE\DE_206\
	Host : 10.0.4.64
Device : VMP3 (SN 1432)
Address : USB
EC-Lab for windows v11.33 (software)
Internet server v11.32 (firmware)
Command interpretor v11.33 (firmware)
Electrode material :
Initial state :
Electrolyte :
Comments :
Electrode surface area : 0.001 cm²
Characteristic mass : 0.001 g
Equivalent Weight : 0.000 g/eq.
Density : 0.000 g/cm3
Record Analogic IN 1
Cycle Definition : Charge/Discharge alternance
Mode                Single sine
E (V)               0.0000
vs.                 Eoc
tE (h:m:s)          0:00:0.0000
record              0
dI                  1.000
unit dI             mA
dt (s)              0.000
fi                  1.000
unit fi             MHz
ff                  1.000
unit ff             Hz
Nd                  20
Points              per decade
spacing             Logarithmic
Va (mV)             128.0
pw                  0.50
Na                  3
corr                0
E range min (V)     -10.000
E range max (V)     10.000
I Range             Auto
Bandwidth           5
nc cycles           0
goto Ns'            0
nr cycles           0
inc. cycle          1

freq/Hz	Re(Z)/Ohm	-Im(Z)/Ohm	|Z|/Ohm	Phase(Z)/deg	time/s	<Ewe>/V	<I>/mA	Cs/µF	Cp/µF	cycle number	I Range	|Ewe|/V	|I|/A	(Q-Qo)/mA.h	Analog IN 1/V	Re(Y)/Ohm-1	Im(Y)/Ohm-1	|Y|/Ohm-1	Phase(Y)/deg	dq/mA.h
1.00002e+06	-0.524253	-3.41443	3.45445	98.729	1.9416	3.30198	0.0280567	-0.0466115	-0.045538	1	9	8.89817e-05	2.57586e-05	2.98328e-06	-0.000392772	-0.0439323	-0.286129	0.289482	-98.729	2.98328e-06
891247	0.0822041	-4.09198	4.09281	88.8491	2.2706	3.30144	0.0190962	-0.0436404	-0.0436228	1	9	8.32679e-05	2.03449e-05	5.81841e-06	-0.000553065	0.00490739	-0.244282	0.244331	-88.8491	2.83514e-06
794333	-2.1676	-3.30921	3.95593	123.226	2.5996	3.30115	0.0171588	-0.0605472	-0.0423687	1	9	3.15122e-05	7.96583e-06	8.51617e-06	-0.000152334	-0.138511	-0.21146	0.252785	-123.226	2.69775e-06
707950	0.326203	-3.80996	3.8239	85.1064	3.30448	3.30102	0.0095768	-0.0590061	-0.0585767	1	9	0.000100116	2.61816e-05	1.28668e-05	-7.2188e-05	0.0223087	-0.26056	0.261513	-85.1064	4.35063e-06
630957	2.15651	-4.43197	4.92878	64.0533	3.90049	3.30097	0.0143831	-0.0569146	-0.0460191	1	9	0.000329736	6.69001e-05	1.42567e-05	-0.000553065	0.0887713	-0.182439	0.20289	-64.0533	1.3899e-06
562342	2.70238	-4.03558	4.85683	56.1922	4.49548	3.30096	0.0128741	-0.0701315	-0.0484195	1	9	0.000684369	0.000140909	1.67686e-05	-0.000392772	0.114562	-0.171081	0.205896	-56.1922	2.51191e-06
501206	2.96537	-3.53411	4.61339	50.0009	5.0925	3.30097	0.00644716	-0.0898512	-0.0527283	1	9	0.00116773	0.000253118	1.89718e-05	-0.000312626	0.139328	-0.16605	0.21676	-50.0009	2.20323e-06
446686	3.28522	-3.04379	4.47854	42.8154	5.68748	3.301	0.00406267	-0.117059	-0.0540704	1	9	0.00180254	0.000402485	2.05498e-05	-0.000953795	0.163792	-0.151755	0.223287	-42.8154	1.57796e-06
398103	3.50086	-2.65199	4.39194	37.1449	6.28348	3.30101	0.00404404	-0.150748	-0.0549648	1	9	0.00262211	0.000597029	2.33473e-05	-0.000392772	0.181494	-0.137487	0.22769	-37.1449	2.79748e-06
354810	3.59543	-2.27799	4.25633	32.3575	6.87949	3.301	-0.00132107	-0.196912	-0.0564034	1	9	0.00364105	0.000855443	2.35748e-05	-0.000392772	0.198463	-0.125742	0.234944	-32.3575	2.27538e-07
316230	3.65888	-1.92092	4.13248	27.6996	7.47448	3.301	-0.00187994	-0.262003	-0.0566117	1	9	0.00494099	0.00119565	2.38955e-05	-0.00023248	0.214253	-0.112484	0.241986	-27.6996	3.20703e-07
281835	3.7339	-1.59618	4.06077	23.146	8.06948	3.30095	-0.00381734	-0.353788	-0.054663	1	9	0.00660477	0.00162648	2.37113e-05	-0.000633211	0.226437	-0.0967982	0.246259	-23.146	-1.84264e-07
251188	3.78307	-1.31691	4.00573	19.1933	8.66548	3.30093	-0.00381733	-0.481135	-0.0520012	1	9	0.0087889	0.00219408	2.05978e-05	-0.000793503	0.235766	-0.0820714	0.249643	-19.1933	-3.11341e-06
223872	3.82476	-1.0505	3.9664	15.358	9.2605	3.30091	-0.00512131	-0.676743	-0.0474705	1	9	0.0117199	0.00295479	1.67904e-05	-0.000392772	0.243114	-0.0667734	0.252118	-15.358	-3.80749e-06
199544	3.86932	-0.809523	3.9531	11.8167	9.85749	3.30092	0.00450989	-0.985266	-0.0413178	1	9	0.0157791	0.00399157	1.12943e-05	-0.000312626	0.247605	-0.0518029	0.252966	-11.8167	-5.49605e-06
177832	3.91102	-0.596342	3.95622	8.66953	10.4525	3.30092	0.000597806	-1.50077	-0.0340992	1	9	0.0215493	0.00544693	1.63973e-05	-0.00023248	0.249878	-0.0381007	0.252766	-8.66953	5.103e-06
158486	3.9464	-0.393154	3.96593	5.68924	11.0475	3.3009	0.00186464	-2.55427	-0.0251016	1	9	0.0298978	0.00753864	2.86001e-06	-0.00103394	0.250905	-0.0249961	0.252148	-5.68924	-1.35373e-05
141256	3.98016	-0.204212	3.9854	2.93713	11.6425	3.30088	-0.00560544	-5.51737	-0.0144861	1	9	0.042324	0.0106198	-1.60089e-05	-0.000713357	0.250586	-0.012857	0.250916	-2.93713	-1.88689e-05
125909	4.01443	-0.0240111	4.0145	0.342693	12.2395	3.30091	0.00769574	-52.6442	-0.00188326	1	9	0.0653701	0.0162835	1.27862e-05	-0.00023248	0.249092	-0.00148987	0.249097	-0.342693	2.87951e-05
112205	4.05207	0.148503	4.05479	-2.09887	12.9715	3.30104	0.037223	9.55153	0.0128117	1	9	0.150799	0.0371904	1.07434e-05	-0.000312626	0.246456	0.00903229	0.246622	2.09887	-2.04283e-06
100004	4.08156	0.325972	4.09455	-4.56622	14.1105	3.30117	0.0449538	4.88229	0.0309437	1	9	0.116263	0.0283947	4.53022e-05	-0.000793503	0.243452	0.0194432	0.244227	4.56622	3.45589e-05
89129.3	4.11518	0.500427	4.14549	-6.93342	14.7055	3.30119	0.0447489	3.56828	0.0519982	1	9	0.119769	0.0288914	-1.68494e-05	-7.2188e-05	0.239462	0.0291198	0.241226	6.93342	-6.21516e-05
79433.3	4.15277	0.675717	4.20738	-9.24188	15.3015	3.30121	0.0360492	2.96519	0.0764818	1	9	0.128709	0.0305913	-1.94647e-05	-0.000392772	0.234592	0.0381716	0.237677	9.24188	-2.61531e-06
70795	4.19382	0.854993	4.28009	-11.523	15.8975	3.30127	0.0593167	2.62939	0.104924	1	9	0.133508	0.0311927	-4.8926e-05	-0.000553065	0.228931	0.0466721	0.23364	11.523	-2.94613e-05
63093.8	4.23828	1.03946	4.36389	-13.78	16.4945	3.30126	0.0449353	2.42676	0.137687	1	9	0.13505	0.0309472	-5.60037e-05	-0.000392772	0.222558	0.0545832	0.229153	13.78	-7.07775e-06
56237	4.28732	1.22978	4.46021	-16.0051	17.0905	3.30124	0.0375582	2.30128	0.17495	1	9	0.134541	0.0301648	-0.000101868	-0.000312626	0.215514	0.0618182	0.224204	16.0051	-4.58644e-05
50122.5	4.34177	1.42927	4.57097	-18.2211	17.6865	3.30128	0.0471148	2.22164	0.217213	1	9	0.133044	0.0291063	-0.000139961	-7.2188e-05	0.207802	0.0684066	0.218772	18.2211	-3.80932e-05
44666.7	4.40303	1.63852	4.69802	-20.412	18.1465	3.30128	0.0364404	2.17463	0.26452	1	9	0.136682	0.0290935	-0.000148278	-0.000472919	0.19949	0.0742373	0.212856	20.412	-8.31653e-06
39814.1	4.46564	1.86282	4.8386	-22.6433	18.6065	3.30101	-0.00709525	2.14591	0.318065	1	9	0.138166	0.028555	-0.000142442	-0.000633211	0.190741	0.079567	0.206672	22.6433	5.83557e-06
35481	4.55963	2.07732	5.01053	-24.4935	19.3685	3.30134	-0.00979969	2.15934	0.371159	1	10	0.118441	0.0236385	-0.000118772	-0.000553065	0.181619	0.0827438	0.19958	24.4935	2.36703e-05
31621.1	4.64326	2.3311	5.19556	-26.6584	19.8285	3.30134	-0.00923499	2.15915	0.434648	1	10	0.135112	0.0260053	-0.000141772	-0.000553065	0.172012	0.0863565	0.192472	26.6584	-2.29999e-05
28188.1	4.73586	2.60236	5.40377	-28.7889	20.4245	3.30135	-0.0101444	2.16963	0.503187	1	10	0.132086	0.0244434	-0.000182118	-0.000472919	0.162183	0.0891199	0.185056	28.7889	-4.03457e-05
25116.9	4.84081	2.89501	5.64044	-30.8812	21.0205	3.30135	-0.0114654	2.18879	0.576605	1	10	0.131271	0.0232732	-0.000232178	0.00016825	0.152157	0.0909964	0.177291	30.8812	-5.00605e-05
22389	4.95837	3.20905	5.90622	-32.9109	21.6165	3.30135	-0.00955935	2.21518	0.653947	1	10	0.130649	0.0221206	-0.000258367	-0.000472919	0.142141	0.0919936	0.169313	32.9109	-2.61888e-05
19948.8	5.09234	3.5482	6.20658	-34.8677	22.2125	3.30135	-0.010966	2.24852	0.734864	1	10	0.129985	0.0209431	-0.000294567	-0.000713357	0.132194	0.0921092	0.161119	34.8677	-3.62005e-05
17786.9	5.24156	3.91219	6.54058	-36.7369	22.6725	3.30135	-0.0105748	2.28718	0.81829	1	10	0.137332	0.0209969	-0.000302919	-0.000633211	0.122526	0.0914508	0.152892	36.7369	-8.35186e-06
15847.7	5.41052	4.30843	6.91638	-38.5305	23.2685	3.30135	-0.0130193	2.33096	0.904516	1	10	0.129808	0.0187683	-0.000304416	-0.00023248	0.113105	0.0900662	0.144584	38.5305	-1.49638e-06
14121.9	5.59757	4.73069	7.32886	-40.2023	23.7285	3.30134	-0.012833	2.38233	0.992612	1	10	0.131967	0.0180065	-0.000300523	-0.000553065	0.104214	0.0880748	0.136447	40.2023	3.8923e-06
12590.9	5.79683	5.171	7.76804	-41.7342	24.1875	3.30135	-0.012943	2.44449	1.08321	1	10	0.132415	0.0170462	-0.000284816	-0.000392772	0.0960656	0.0856941	0.128733	41.7342	1.57071e-05
11217.7	6.03421	5.66008	8.27334	-43.1676	24.6465	3.30134	-0.0128834	2.50665	1.17321	1	10	0.131714	0.0159203	-0.000283715	-0.000633211	0.0881573	0.0826915	0.12087	43.1676	1.10078e-06
10002.2	6.30205	6.18365	8.82912	-44.4567	25.1055	3.30134	-0.0139659	2.57323	1.26222	1	10	0.13033	0.0147614	-0.00028706	-0.000793503	0.0808438	0.079325	0.113262	44.4567	-3.34495e-06
8914.93	6.60605	6.74923	9.44416	-45.6142	25.5879	3.30136	-0.00667339	2.64513	1.35092	1	10	0.128635	0.0136206	-0.000295947	-0.000312626	0.0740655	0.0756707	0.105886	45.6142	-8.88623e-06
7944	6.94933	7.35592	10.1194	-46.6281	26.114	3.30138	-0.000960949	2.7236	1.43915	1	10	0.126863	0.0125366	-0.000285757	-0.000152334	0.0678627	0.0718333	0.0988199	46.6281	1.01895e-05
7082.23	7.33378	8.00268	10.8548	-47.4973	26.6909	3.30139	0.0017444	2.80811	1.5263	1	10	0.125178	0.011532	-0.000287649	-0.000312626	0.0622418	0.0679187	0.0921249	47.4973	-1.89142e-06
6307.73	7.76931	8.69633	11.6614	-48.2224	27.3245	3.30139	0.00305794	2.90142	1.61355	1	10	0.123649	0.0106033	-0.000290556	-7.2188e-05	0.0571322	0.0639491	0.085753	48.2224	-2.90761e-06
5621.06	8.25543	9.42959	12.5327	-48.7985	28.0253	3.30142	0.00640236	3.00268	1.69982	1	10	0.122283	0.00975709	-0.000285503	-0.000312626	0.0525591	0.0600346	0.0797911	48.7985	5.05347e-06
5011.6	8.79754	10.2039	13.4728	-49.233	28.7857	3.30145	0.00929217	3.11226	1.78523	1	10	0.121103	0.00898872	-0.000286393	-0.00023248	0.0484668	0.0562147	0.0742235	49.233	-8.90709e-07
4466.43	9.40504	11.0279	14.4938	-49.5412	29.5457	3.30145	0.00891019	3.23121	1.87064	1	10	0.120096	0.00828606	-0.000291071	-0.000312626	0.044771	0.0524965	0.0689951	49.5412	-4.67798e-06
3981.27	10.081	11.892	15.5899	-49.7114	30.3047	3.30145	0.00891019	3.36159	1.95597	1	10	0.119246	0.00764889	-0.000289689	-0.000312626	0.0414779	0.0489288	0.0641439	49.7114	1.38225e-06
3546.6	10.8374	12.8047	16.7753	-49.7567	31.065	3.30145	0.00910207	3.50461	2.04192	1	10	0.118519	0.00706509	-0.000293293	-0.000713357	0.0385111	0.045502	0.0596115	49.7567	-3.60422e-06
3161.01	11.6706	13.7507	18.0357	-49.6779	31.8247	3.30145	0.00981751	3.66158	2.12841	1	10	0.117915	0.00653788	-0.000295063	-0.000633211	0.035878	0.0422729	0.0554457	49.6779	-1.76925e-06
2817.3	12.592	14.7336	19.3813	-49.4813	32.5849	3.30145	0.00858777	3.83424	2.21579	1	10	0.11741	0.0060579	-0.000291246	-7.2188e-05	0.0335217	0.039223	0.051596	49.4813	3.81702e-06
2510.8	13.6057	15.7498	20.8128	-49.1774	33.3447	3.30144	0.00958084	4.02468	2.30474	1	10	0.116984	0.00562078	-0.000284992	-0.000633211	0.0314094	0.0363592	0.0480473	49.1774	6.25344e-06
2237.85	14.7156	16.7928	22.3282	-48.7717	34.1049	3.30146	0.00904983	4.23513	2.39555	1	10	0.116636	0.0052237	-0.000283295	-0.000633211	0.029517	0.0336835	0.0447865	48.7717	1.69741e-06
1995.64	15.9276	17.8567	23.928	-48.2681	34.8647	3.30144	0.00768596	4.46619	2.48729	1	10	0.116349	0.00486246	-0.000280814	-0.000472919	0.0278187	0.031188	0.041792	48.2681	2.48108e-06
1778.29	17.2519	18.9401	25.6195	-47.6707	35.6249	3.30145	0.00908709	4.72535	2.58261	1	10	0.1161	0.00453173	-0.00028267	-0.000152334	0.0262844	0.0288564	0.0390328	47.6707	-1.85635e-06
1585.51	18.6848	20.0287	27.3911	-46.9881	36.3847	3.30144	0.00785923	5.01187	2.6797	1	10	0.115904	0.00423147	-0.000279332	-0.000472919	0.0249041	0.0266953	0.0365082	46.9881	3.33849e-06
1411.84	20.2485	21.1361	29.2701	-46.2288	37.1462	3.30145	0.00885416	5.33347	2.78108	1	10	0.115738	0.00395415	-0.000280252	7.95815e-06	0.0236344	0.0246705	0.0341646	46.2288	-9.19949e-07
1258.79	21.9162	22.2176	31.208	-45.3913	37.9059	3.30144	0.00898087	5.69075	2.88424	1	10	0.115604	0.00370431	-0.000277288	-0.000553065	0.0225026	0.0228121	0.032043	45.3913	2.96377e-06
1121.79	23.7438	23.2556	33.2354	-44.4049	38.9154	3.30142	-0.00234994	6.10068	2.98699	1	11	0.11977	0.00360368	-0.000275815	-0.000873649	0.0214955	0.0210536	0.0300884	44.4049	1.47305e-06
1000.32	25.6606	24.2966	35.3382	-43.4361	39.6747	3.30142	-0.00249291	6.5484	3.09555	1	11	0.118918	0.00336512	-0.000274504	-0.00119423	0.0205483	0.0194561	0.028298	43.4361	1.31068e-06
891.427	27.7124	25.302	37.5255	-42.3967	40.4335	3.30142	-0.00218522	7.05635	3.208	1	11	0.118206	0.00315002	-0.000273137	7.95815e-06	0.0196798	0.017968	0.0266485	42.3967	1.36676e-06
794.238	29.8982	26.2527	39.7883	-41.2854	41.1929	3.30143	-0.00210183	7.633	3.32302	1	11	0.117626	0.0029563	-0.000273361	7.95815e-06	0.0188858	0.016583	0.025133	41.2854	-2.23391e-07
707.509	32.2135	27.1337	42.1183	-40.1078	41.9554	3.30143	-0.00217704	8.29045	3.44077	1	11	0.117155	0.00278156	-0.000273582	-0.000312626	0.0181592	0.0152957	0.0237427	40.1078	-2.21662e-07
631.01	34.6177	27.919	44.4731	-38.8861	42.7134	3.30143	-0.0021052	9.03407	3.56032	1	11	0.116761	0.00262544	-0.000273703	7.95815e-06	0.0175026	0.0141158	0.0224855	38.8861	-1.20828e-07
562.339	37.1506	28.6009	46.8847	-37.5914	43.4699	3.30143	-0.00219345	9.89561	3.68247	1	11	0.11644	0.00248353	-0.00027621	-0.000553065	0.0169006	0.0130112	0.0213289	37.5914	-2.50709e-06
501.444	39.7681	29.1602	49.3134	-36.251	44.2272	3.30143	-0.00216646	10.8845	3.8059	1	11	0.116176	0.00235586	-0.000274838	-0.000553065	0.0163532	0.0119911	0.0202784	36.251	1.37173e-06
446.859	42.486	29.5785	51.7682	-34.8454	44.9839	3.30143	-0.00221784	12.0413	3.93097	1	11	0.115956	0.00223991	-0.000277651	-0.000152334	0.0158533	0.011037	0.0193169	34.8454	-2.81202e-06
398.089	45.272	29.8472	54.2256	-33.3963	45.7467	3.30142	-0.00220387	13.3948	4.05822	1	11	0.11578	0.00213515	-0.00027816	-0.000152334	0.0153965	0.0101507	0.0184415	33.3963	-5.09008e-07
354.66	48.0934	29.9448	56.6539	-31.9079	46.5069	3.30142	-0.00228858	14.9861	4.18667	1	11	0.115625	0.0020409	-0.000279547	-7.2188e-05	0.0149839	0.00932955	0.017651	31.9079	-1.38739e-06
316.316	50.9033	29.8688	59.0194	-30.4034	47.2639	3.30142	-0.00218023	16.8454	4.31447	1	11	0.115509	0.00195713	-0.000279035	-0.000312626	0.0146136	0.00857488	0.0169436	30.4034	5.11916e-07
281.894	53.7123	29.6163	61.3363	-28.8718	48.0194	3.30142	-0.00225432	19.0635	4.44457	1	11	0.115412	0.00188163	-0.000279552	-0.000152334	0.0142771	0.0078722	0.0163036	28.8718	-5.17442e-07
251.044	56.4872	29.1825	63.58	-27.3218	48.7759	3.30143	-0.00225823	21.7244	4.57668	1	11	0.115327	0.00181389	-0.00027792	7.95815e-06	0.0139736	0.00721906	0.0157282	27.3218	1.63231e-06
223.925	59.1449	28.5921	65.6934	-25.8003	49.5387	3.30143	-0.00209201	24.8583	4.7089	1	11	0.115257	0.00175447	-0.00027656	-0.000392772	0.0137048	0.00662524	0.0152222	25.8003	1.35964e-06
199.553	61.7252	27.8515	67.7178	-24.2858	50.2982	3.30142	-0.00216349	28.636	4.84401	1	11	0.115208	0.00170129	-0.000278449	-0.000472919	0.0134603	0.00607356	0.0147672	24.2858	-1.88891e-06
177.781	63.7099	26.4563	68.9847	-22.5513	51.2882	3.30142	-0.00255029	33.838	4.9769	1	11	0.126705	0.00183671	-0.000280909	-0.000392772	0.0133876	0.00555936	0.014496	22.5513	-2.46005e-06
158.428	65.947	25.4763	70.6969	-21.1223	52.0547	3.30142	-0.00232078	39.4321	5.12063	1	11	0.126669	0.00179172	-0.000281054	-0.000392772	0.0131945	0.00509725	0.0141449	21.1223	-1.4428e-07
141.311	68.0212	24.4363	72.2773	-19.7606	52.8079	3.30142	-0.00228132	46.0901	5.26835	1	11	0.126632	0.00175203	-0.000282737	-0.000152334	0.0130209	0.00467769	0.0138356	19.7606	-1.68303e-06
125.846	69.9617	23.3339	73.7503	-18.4448	53.5634	3.30141	-0.00235112	54.1994	5.42552	1	11	0.126604	0.00171666	-0.00028186	-7.2188e-05	0.0128627	0.00429002	0.0135593	18.4448	8.77211e-07
112.19	71.7301	22.2216	75.0933	-17.2127	54.3089	3.30141	-0.00229975	63.8397	5.59035	1	11	0.126585	0.0016857	-0.000280456	-0.000152334	0.0127203	0.00394069	0.0133168	17.2127	1.40354e-06
100.032	73.3445	21.1089	76.3217	-16.0561	55.0687	3.30143	-0.00208959	75.3729	5.76568	1	11	0.126566	0.00165832	-0.000280472	0.000248397	0.0125913	0.00362384	0.0131024	16.0561	-1.5902e-08
89.116	74.8214	20.0084	77.4505	-14.9715	55.8347	3.30142	-0.00216144	89.2589	5.95701	1	11	0.126549	0.00163394	-0.000282033	-0.000713357	0.0124732	0.00333552	0.0129115	14.9715	-1.56099e-06
79.4155	76.1649	18.9314	78.4824	-13.9585	56.5992	3.30142	-0.00208624	105.86	6.15961	1	11	0.126541	0.00161235	-0.000280555	-0.000312626	0.0123655	0.00307354	0.0127417	13.9585	1.47792e-06
70.8387	77.3662	17.9264	79.4159	-13.0457	57.3504	3.30142	-0.00221319	125.331	6.38596	1	11	0.126529	0.00159324	-0.000281886	-0.000152334	0.0122669	0.00284235	0.0125919	13.0457	-1.33096e-06
63.0823	78.481	16.9479	80.2901	-12.1859	58.1308	3.30141	-0.00224111	148.866	6.63293	1	11	0.126522	0.00157581	-0.000282747	-0.000472919	0.0121742	0.00262901	0.0124548	12.1859	-8.60924e-07
56.2418	79.4919	16.0472	81.0954	-11.4131	58.8753	3.30142	-0.00230887	176.344	6.90507	1	11	0.12652	0.00156014	-0.000283822	-0.000633211	0.0120873	0.0024401	0.0123311	11.4131	-1.07469e-06
50.1444	80.4074	15.215	81.8342	-10.715	59.6322	3.30141	-0.00218155	208.606	7.21107	1	11	0.126512	0.00154595	-0.000284925	-0.000472919	0.0120068	0.00227197	0.0122198	10.715	-1.10332e-06
44.6712	81.2589	14.4454	82.5329	-10.0802	60.3962	3.30141	-0.0021754	246.639	7.5556	1	11	0.126509	0.00153283	-0.000285825	7.95815e-06	0.0119293	0.00212069	0.0121164	10.0802	-9.00554e-07
39.8089	82.0469	13.751	83.1912	-9.51434	61.1587	3.30141	-0.0022802	290.739	7.94366	1	11	0.126504	0.00152064	-0.000284222	-0.000152334	0.0118551	0.00198692	0.0120205	9.51434	1.60393e-06
35.4653	82.7767	13.1207	83.8101	-9.00687	61.9081	3.30142	-0.0019282	342.026	8.38265	1	11	0.126499	0.00150935	-0.000287592	-0.000312626	0.0117846	0.00186795	0.0119317	9.00687	-3.37e-06
31.6296	83.4635	12.5615	84.4035	-8.55896	62.6325	3.30141	-0.00244233	400.576	8.87256	1	11	0.126501	0.00149877	-0.000289221	0.00016825	0.0117159	0.00176328	0.0118479	8.55896	-1.62954e-06
28.1701	84.062	12.0598	84.9227	-8.1641	63.4368	3.30143	-0.00165513	468.482	9.44765	1	11	0.126496	0.00148954	-0.000286488	-0.00023248	0.0116561	0.00167221	0.0117754	8.1641	2.73262e-06
25.1044	84.5763	11.6098	85.3694	-7.81615	64.1929	3.30142	-0.000899569	546.066	10.0993	1	11	0.126496	0.00148175	-0.000285428	-0.000472919	0.011605	0.00159301	0.0117138	7.81615	1.06003e-06
22.3854	85.1511	11.2418	85.89	-7.52078	64.8794	3.30142	-0.00204771	632.442	10.8344	1	11	0.126497	0.00147278	-0.000289112	-0.000633211	0.0115426	0.00152388	0.0116428	7.52078	-3.68403e-06
19.9553	85.7018	10.9302	86.396	-7.26811	65.6402	3.30141	-0.00243693	729.684	11.6789	1	11	0.126492	0.00146409	-0.00028795	-0.000152334	0.0114816	0.00146433	0.0115746	7.26811	1.16204e-06
17.7961	86.2496	10.673	86.9075	-7.05426	66.4845	3.30142	-0.00217029	837.927	12.6377	1	11	0.126494	0.0014555	-0.000289013	-0.00023248	0.0114194	0.0014131	0.0115065	7.05426	-1.0625e-06
15.8576	86.7745	10.4598	87.4026	-6.87326	67.2059	3.30141	-0.00226549	959.536	13.7422	1	11	0.126491	0.00144722	-0.000289251	7.95815e-06	0.0113591	0.00136922	0.0114413	6.87326	-2.3834e-07
14.119	87.2974	10.3085	87.904	-6.73455	68.0082	3.30141	-0.0020559	1093.51	15.0381	1	11	0.126492	0.00143898	-0.000294086	-0.000312626	0.0112976	0.00133406	0.0113761	6.73455	-4.83519e-06
12.6008	87.7943	10.2006	88.3849	-6.62735	68.8988	3.30143	-0.00240743	1238.21	16.4927	1	11	0.126491	0.00143113	-0.00029046	-0.000312626	0.0112385	0.00130578	0.0113141	6.62735	3.62618e-06
11.2249	88.2825	10.1552	88.8647	-6.56194	69.5829	3.30142	-0.00268842	1396.21	18.2335	1	11	0.126489	0.00142338	-0.000297327	-0.000392772	0.0111793	0.00128597	0.0112531	6.56194	-6.86713e-06
10.0032	88.7716	10.173	89.3526	-6.53743	70.3437	3.30142	-0.00290286	1563.98	20.2729	1	11	0.12649	0.00141563	-0.00028631	-0.000553065	0.0111188	0.00127419	0.0111916	6.53743	1.10177e-05
8.91838	89.2444	10.2292	89.8287	-6.5387	71.188	3.30143	-0.00155601	1744.59	22.6227	1	11	0.126489	0.00140811	-0.00029828	-0.000953795	0.0110599	0.00126768	0.0111323	6.5387	-1.19703e-05
7.93953	89.7151	10.353	90.3104	-6.58273	72.1267	3.30144	-0.00225536	1936.24	25.4457	1	11	0.12649	0.00140061	-0.00028578	-0.00023248	0.0109999	0.00126937	0.0110729	6.58273	1.25002e-05
7.07654	90.1649	10.5193	90.7765	-6.65449	72.685	3.30143	-0.0013439	2138.01	28.7105	1	11	0.126487	0.00139339	-0.00028524	-7.2188e-05	0.0109419	0.00127656	0.0110161	6.65449	5.39972e-07
6.31058	90.6072	10.7473	91.2424	-6.7645	73.3052	3.30142	0.000898204	2346.66	32.558	1	11	0.126487	0.00138628	-0.000285996	-0.000312626	0.0108835	0.00129094	0.0109598	6.7645	-7.55971e-07
5.6205	91.0574	11.0879	91.73	-6.94263	73.9907	3.30143	0.00170402	2553.85	37.314	1	11	0.126487	0.0013789	-0.000293526	-7.2188e-05	0.0108216	0.00131773	0.0109016	6.94263	-7.53027e-06
5.01444	91.5584	11.506	92.2786	-7.16274	74.7482	3.30143	-0.000528777	2758.49	42.8866	1	11	0.126486	0.0013707	-0.000307074	-0.000553065	0.0107522	0.00135121	0.0108368	7.16274	-1.35485e-05
4.46939	92.036	11.9384	92.8071	-7.39083	75.5895	3.30142	-0.00339382	2982.81	49.3578	1	11	0.126493	0.00136296	-0.00030502	-0.000312626	0.0106855	0.00138607	0.010775	7.39083	2.05411e-06
3.97785	92.5147	12.5368	93.3602	-7.71724	76.5262	3.30143	-0.00299994	3191.42	57.5486	1	11	0.126488	0.00135483	-0.00028321	-0.000553065	0.0106142	0.00143835	0.0107112	7.71724	2.18108e-05
3.55114	93.0319	13.1273	93.9535	-8.03174	77.5674	3.30142	5.95262e-05	3414.1	66.6505	1	11	0.126487	0.00134628	-0.000293327	-0.00023248	0.0105392	0.00148714	0.0106436	8.03174	-1.01177e-05
3.1604	93.5809	13.9159	94.6099	-8.45815	78.7293	3.30143	-0.00124758	3618.82	78.2918	1	11	0.126485	0.00133691	-0.000316572	-7.2188e-05	0.0104548	0.00155467	0.0105697	8.45815	-2.32453e-05
2.81836	94.0885	14.7269	95.2341	-8.89587	80.0246	3.30144	-0.00302196	3834.52	91.696	1	11	0.126488	0.00132818	-0.000282562	-0.00023248	0.0103741	0.00162378	0.0105004	8.89587	3.40105e-05
2.51367	94.7225	15.6455	96.0059	-9.37896	81.4687	3.30144	-0.000366058	4046.9	107.474	1	11	0.126489	0.00131751	-0.00029829	-0.000713357	0.0102768	0.00169743	0.010416	9.37896	-1.57281e-05
2.23982	95.3695	16.7394	96.8274	-9.95521	83.0833	3.30143	-0.00150539	4244.9	126.867	1	11	0.126488	0.00130633	-0.000318255	-0.00023248	0.0101722	0.00178543	0.0103277	9.95521	-1.99644e-05
1.99706	95.9962	17.927	97.6557	-10.578	84.8867	3.30144	-0.00185506	4445.5	149.81	1	11	0.126486	0.00129523	-0.000271148	-0.000713357	0.010066	0.0018798	0.0102401	10.578	4.71066e-05
1.77961	96.698	19.2151	98.5887	-11.239	86.9049	3.30143	0.000117018	4654.28	176.8	1	11	0.126487	0.00128298	-0.000329109	-0.000472919	0.00994863	0.00197692	0.0101432	11.239	-5.79608e-05
1.58469	97.4998	20.6511	99.6628	-11.9589	89.164	3.30142	-0.00203172	4863.32	208.812	1	11	0.126491	0.00126919	-0.000281874	-0.000152334	0.00981606	0.00207911	0.0100338	11.9589	4.72349e-05
1.41224	98.3823	22.2738	100.872	-12.7567	91.6932	3.30143	-0.000159971	5059.62	246.697	1	11	0.126486	0.00125392	-0.000305042	-0.000713357	0.00966883	0.00218903	0.00991353	12.7567	-2.3168e-05
1.25967	99.3047	24.0556	102.177	-13.6171	94.5209	3.30142	-0.00131154	5252.25	291.122	1	11	0.12649	0.00123795	-0.000317267	-0.000392772	0.00951186	0.00230416	0.00978696	13.6171	-1.22251e-05
1.12249	100.288	26.0327	103.612	-14.5517	97.689	3.30143	-0.000936306	5446.54	343.829	1	11	0.126488	0.00122079	-0.000271046	-0.000553065	0.00934183	0.00242495	0.00965144	14.5517	4.62209e-05
1.00006	101.354	28.185	105.2	-15.5405	101.238	3.30142	-0.000274052	5646.44	405.305	1	11	0.126486	0.00120234	-0.000350774	-7.2188e-05	0.00915822	0.00254677	0.00950574	15.5405	-7.97281e-05