File: utils/DE_206_10_30.mpt
EC-Lab ASCII FILE
Nb header lines : 60

Potentio Electrochemical Impedance Spectroscopy

Run on channel : 10 (SN 41749)
User :
CE vs. WE compliance from -10 V to 10 V
Electrode connection : standard
Ewe ctrl range : min = -5.00 V, max = 5.00 V
Acquisition started on : 12/03/2020 16:53:05
Technique started on : 12/03/2020 16:53:07
Saved on :
	File : DE_206_10_30.mpr
	Directory : P:\Chemistry\Data\VMP3\Kyler\DOE\DE_206\
	Host : 10.0.4.64
Device : VMP3 (SN 1432)
Address : USB
EC-Lab for windows v11.33 (software)
Internet server v11.32 (firmware)
Command interpretor v11.33 (firmware)
Electrode material :
Initial state :
Electrolyte :
Comments :
Electrode surface area : 0.001 cm²
Characteristic mass : 0.001 g
Equivalent Weight : 0.000 g/eq.
Density : 0.000 g/cm3
Record Analogic IN 1
Cycle Definition : Charge/Discharge alternance
Mode                Single sine
E (V)               0.0000
vs.                 Eoc
tE (h:m:s)          0:00:0.0000
record              0
dI                  1.000
unit dI             mA
dt (s)              0.000
fi                  1.000
unit fi             MHz
ff                  1.000
unit ff             Hz
Nd                  20
Points              per decade
spacing             Logarithmic
Va (mV)             128.0
pw                  0.50
Na                  3
corr                0
E range min (V)     -5.000
E range max (V)     5.000
I Range             Auto
Bandwidth           5
nc cycles           0
goto Ns'            0
nr cycles           0
inc. cycle          1

freq/Hz	Re(Z)/Ohm	-Im(Z)/Ohm	|Z|/Ohm	Phase(Z)/deg	time/s	<Ewe>/V	<I>/mA	Cs/µF	Cp/µF	cycle number	I Range	|Ewe|/V	|I|/A	(Q-Qo)/mA.h	Analog IN 1/V	Re(Y)/Ohm-1	Im(Y)/Ohm-1	|Y|/Ohm-1	Phase(Y)/deg	dq/mA.h
1.00002e+06	56.0888	-8.4631	56.7237	8.5805	2.62149	3.30497	0.00159698	-0.0188054	-0.000418613	1	10	0.000137405	2.42235e-06	-1.18166e-06	0.000425134	0.017432	-0.00263027	0.0176293	-8.5805	-1.18166e-06
891247	87.0164	35.5292	93.9903	-22.2104	3.52048	3.3044	0.000808854	0.00502616	0.000718193	1	11	0.000440067	4.68205e-06	-9.77876e-07	0.000505303	0.00984997	0.00402179	0.0106394	22.2104	2.0378e-07
794333	92.9541	34.7822	99.2485	-20.5152	4.11549	3.30409	0.000179519	0.0057605	0.000707501	1	11	0.00142802	1.43883e-05	-1.00362e-06	0.000505303	0.00943671	0.0035311	0.0100757	20.5152	-2.5745e-08
707950	97.0929	34.114	102.912	-19.3592	4.71148	3.30391	-0.000237552	0.00658998	0.000724139	1	11	0.00297363	2.8895e-05	-8.99388e-07	0.000825979	0.00916766	0.0032211	0.00971707	19.3592	1.04233e-07
630957	100.981	33.556	106.41	-18.3817	5.30749	3.30381	-0.000280973	0.00751709	0.000747522	1	11	0.00518857	4.876e-05	-7.01892e-07	0.000585472	0.00891809	0.00296349	0.00939759	18.3817	1.97496e-07
562342	104.7	33.2945	109.866	-17.6407	5.90349	3.30375	-0.000275196	0.00850054	0.000780666	1	11	0.0081713	7.43751e-05	-7.79461e-07	0.000986317	0.00867397	0.00275833	0.00910199	17.6407	-7.75689e-08
501206	108.296	32.8398	113.166	-16.8694	6.49949	3.30369	-0.000354396	0.0096695	0.000814279	1	11	0.0120007	0.000106045	-8.00006e-07	0.000425134	0.00845634	0.0025643	0.00883659	16.8694	-2.05453e-08
446686	111.541	32.2365	116.106	-16.1198	7.09549	3.30367	-0.000318056	0.0110528	0.000852036	1	11	0.0166686	0.000143564	-8.09249e-07	0.000344965	0.0082742	0.00239133	0.00861284	16.1198	-9.24312e-09
398103	114.629	31.6121	118.908	-15.4177	7.6905	3.30368	-0.000192077	0.0126465	0.000893835	1	11	0.0222382	0.000187021	-8.44621e-07	0.000505303	0.00810724	0.0022358	0.00840989	15.4177	-3.53717e-08
354810	117.399	30.8022	121.372	-14.7015	8.28548	3.30365	-0.00033259	0.0145627	0.000937922	1	11	0.0286913	0.000236391	-1.05982e-06	0.000906148	0.00796938	0.00209094	0.00823911	14.7015	-2.15197e-07
316230	120.114	29.9671	123.795	-14.0087	8.88149	3.30361	-0.000346378	0.0167947	0.000984132	1	11	0.0361721	0.000292193	-1.5334e-06	0.000665641	0.0078376	0.0019554	0.00807785	14.0087	-4.73578e-07
281835	122.579	29.0607	125.976	-13.3373	9.47649	3.30357	-0.000546898	0.0194321	0.00103408	1	11	0.044639	0.000354344	-1.96656e-06	0.000264796	0.0077239	0.00183116	0.00793799	13.3373	-4.33165e-07
251188	124.909	28.0999	128.031	-12.6784	10.0725	3.30354	-0.000532548	0.0225484	0.00108617	1	11	0.0541864	0.000423229	-1.49894e-06	0.000906148	0.00762017	0.00171426	0.00781061	12.6784	4.67623e-07
223872	127.101	27.0985	129.958	-12.0355	10.6675	3.30348	-0.000749096	0.0262347	0.00114067	1	11	0.0647997	0.00049862	-1.06573e-06	0.000344965	0.00752565	0.0016045	0.0076948	12.0355	4.33205e-07
199544	129.106	26.1198	131.721	-11.4373	11.2645	3.3035	-0.000426322	0.0305361	0.00120071	1	11	0.0764276	0.000580221	-9.01612e-07	0.000425134	0.00744103	0.00150542	0.00759178	11.4373	1.64121e-07
177832	131.02	25.1168	133.406	-10.8521	11.8595	3.3035	-0.000402461	0.0356325	0.00126307	1	11	0.089095	0.00066785	-7.61627e-07	0.000184627	0.00736188	0.00141129	0.00749593	10.8521	1.39985e-07
158486	132.82	24.1578	134.999	-10.3085	12.4565	3.30345	-0.000696347	0.0415693	0.00133115	1	11	0.102732	0.000760985	1.08716e-07	0.000344965	0.00728791	0.00132555	0.00740747	10.3085	8.70343e-07
141256	134.505	23.2087	136.492	-9.78994	12.9165	3.30347	-0.000551916	0.0485471	0.00140361	1	11	0.117386	0.000860019	1.6557e-07	0.000505303	0.00721974	0.00124576	0.00732642	9.78994	5.68538e-08
125909	136.089	22.2928	137.902	-9.30304	13.3765	3.30348	-0.000489114	0.0567019	0.00148178	1	11	0.133119	0.000965309	2.66335e-07	0.000585472	0.00715612	0.00117225	0.0072515	9.30304	1.00766e-07
112205	137.609	21.3932	139.262	-8.83665	13.9715	3.30344	-0.000802941	0.0663029	0.00156465	1	11	0.129963	0.000933224	-1.02507e-06	2.42893e-05	0.00709546	0.00110308	0.00718069	8.83665	-1.29141e-06
100004	139.031	20.5467	140.541	-8.40661	14.5665	3.3035	-0.000268091	0.0774574	0.00165554	1	11	0.129728	0.000923066	-9.11089e-07	0.000264796	0.00703892	0.00104025	0.00711537	8.40661	1.13985e-07
89129.3	140.366	19.7136	141.744	-7.99456	15.1615	3.3035	-0.000354188	0.0905804	0.0017521	1	11	0.129697	0.000915013	7.8597e-07	0.000425134	0.00698642	0.000981201	0.00705499	7.99456	1.69706e-06
79433.3	141.622	18.9275	142.882	-7.61232	15.7565	3.30347	-0.000733988	0.105858	0.00185762	1	11	0.129625	0.000907216	1.36971e-06	0.000665641	0.00693712	0.000927127	0.0069988	7.61232	5.83745e-07
70795	142.81	18.1886	143.963	-7.25827	16.3525	3.30352	-0.000320458	0.1236	0.00197294	1	11	0.129555	0.000899916	-2.84666e-07	0.000585472	0.00689056	0.000877601	0.00694622	7.25827	-1.65438e-06
63093.8	143.925	17.4779	144.983	-6.92395	16.9485	3.30353	-0.000239951	0.144326	0.00209745	1	11	0.129429	0.000892722	-1.86274e-06	0.000665641	0.00684707	0.000831491	0.00689737	6.92395	-1.57808e-06
56237	144.995	16.839	145.97	-6.62437	17.5455	3.30354	-0.000262873	0.168067	0.00223661	1	11	0.129312	0.000885885	-3.12141e-06	0.000585472	0.006805	0.0007903	0.00685074	6.62437	-1.25866e-06
50122.5	145.994	16.2241	146.892	-6.34119	18.0045	3.30353	-0.000378414	0.195717	0.00238754	1	11	0.140268	0.000954902	-3.38548e-06	0.000505303	0.00676606	0.000751904	0.00680771	6.34119	-2.64074e-07
44666.7	146.922	15.6747	147.755	-6.08972	18.6005	3.30354	-0.000299028	0.227319	0.00255829	1	11	0.130291	0.000881801	-2.06762e-06	0.000505303	0.00672975	0.000717982	0.00676795	6.08972	1.31786e-06
39814.1	147.837	15.1768	148.614	-5.8614	19.0605	3.30353	-0.00032549	0.263392	0.00274691	1	11	0.139366	0.000937767	-1.58359e-06	0.000184627	0.00669365	0.000687165	0.00672883	5.8614	4.84024e-07
35481	148.658	14.7424	149.387	-5.66351	19.6565	3.30355	-0.000315613	0.304268	0.00296324	1	11	0.130052	0.000870567	-1.73043e-06	0.000264796	0.00666134	0.000660605	0.00669402	5.66351	-1.46834e-07
31621.1	149.489	14.3792	150.179	-5.49434	20.1165	3.30356	-0.000151989	0.350032	0.00320894	1	11	0.137123	0.00091307	-1.08718e-06	0.000665641	0.00662815	0.000637557	0.00665874	5.49434	6.43245e-07
28188.1	150.257	14.0514	150.913	-5.3425	20.7125	3.30357	-0.000185908	0.401824	0.00348353	1	11	0.129578	0.000858627	-2.16335e-06	0.000825979	0.00659755	0.000616972	0.00662633	5.3425	-1.07617e-06
25116.9	151.017	13.7986	151.646	-5.2207	21.1725	3.30356	-0.000187026	0.459217	0.00380214	1	11	0.134812	0.000888993	-2.48589e-06	0.000104458	0.00656695	0.000600032	0.00659431	5.2207	-3.22536e-07
22389	151.759	13.611	152.368	-5.12504	21.6325	3.30358	-0.000211811	0.522269	0.00416759	1	11	0.139398	0.000914876	-3.01598e-06	0.000665641	0.0065368	0.000586274	0.00656304	5.12504	-5.30091e-07
19948.8	152.482	13.4698	153.075	-5.04824	22.2285	3.30357	-0.00027182	0.592301	0.00458621	1	11	0.129501	0.000845995	-1.23916e-06	0.000665641	0.00650739	0.000574844	0.00653273	5.04824	1.77681e-06
17786.9	153.176	13.4098	153.762	-5.00321	22.6885	3.30355	-0.000341891	0.667263	0.0050751	1	11	0.132532	0.00086193	-9.3404e-07	0.000344965	0.00647877	0.000567184	0.00650355	5.00321	3.05123e-07
15847.7	153.883	13.4041	154.466	-4.97823	23.1485	3.30357	-0.000236224	0.749231	0.00564192	1	11	0.135085	0.000874528	-1.31909e-06	0.00130699	0.0064495	0.000561789	0.00647392	4.97823	-3.85054e-07
14121.9	154.6	13.466	155.185	-4.97803	23.6075	3.30357	-0.000248337	0.836929	0.00630181	1	11	0.137199	0.000884098	-1.87762e-06	0.000585472	0.0064196	0.000559162	0.00644391	4.97803	-5.58526e-07
12590.9	155.327	13.5982	155.921	-5.00324	24.0665	3.30356	-0.000277968	0.929567	0.00707025	1	11	0.138928	0.000891014	-1.72806e-06	0.000986317	0.00638907	0.000559336	0.00641351	5.00324	1.49559e-07
11217.7	156.07	13.794	156.678	-5.05087	24.5265	3.30357	-0.000198393	1.02855	0.00797239	1	11	0.140337	0.000895704	-1.67845e-06	0.000665641	0.00635773	0.000561917	0.00638251	5.05087	4.96068e-08
10002.2	156.819	14.0506	157.447	-5.11988	25.1225	3.30356	-0.000308719	1.13247	0.00901876	1	11	0.129392	0.000821811	-1.01662e-06	0.000104458	0.00632599	0.000566792	0.00635133	5.11988	6.61831e-07
8914.93	157.592	14.3858	158.248	-5.21577	25.6049	3.30361	-6.07188e-06	1.24099	0.0102556	1	11	0.13022	0.000822891	-8.13745e-07	0.000665641	0.00629305	0.000574459	0.00631922	5.21577	2.0288e-07
7944	158.414	14.7745	159.101	-5.32829	26.131	3.30361	-0.000123106	1.35603	0.0116935	1	11	0.130869	0.000822554	-1.20951e-06	0.000906148	0.00625815	0.000583667	0.00628531	5.32829	-3.95762e-07
7082.23	159.281	15.2245	160.007	-5.45988	26.7079	3.30363	-9.44065e-05	1.47607	0.0133633	1	11	0.131386	0.000821126	-7.25988e-07	0.00114665	0.00622137	0.000594654	0.00624973	5.45988	4.83519e-07
6307.73	160.199	15.7533	160.971	-5.61618	27.3426	3.30361	-0.000263062	1.60168	0.0153399	1	11	0.13179	0.000818714	-9.89714e-07	0.00130699	0.00618247	0.00060796	0.00621229	5.61618	-2.63726e-07
5621.06	161.174	16.325	161.999	-5.78365	28.0433	3.30366	-1.70675e-05	1.7344	0.017613	1	11	0.132103	0.000815456	-9.73852e-07	0.000665641	0.00614146	0.000622057	0.00617289	5.78365	1.58625e-08
5011.6	162.211	16.9407	163.094	-5.96211	28.8037	3.30365	-5.88123e-05	1.87462	0.0202255	1	11	0.132342	0.000811448	-1.35519e-06	0.000825979	0.00609828	0.000636879	0.00613145	5.96211	-3.81338e-07
4466.43	163.337	17.6232	164.285	-6.15809	29.5627	3.30364	-0.000121801	2.02197	0.0232674	1	11	0.132529	0.000806704	-6.20629e-07	0.000585472	0.00605185	0.000652963	0.00608698	6.15809	7.34561e-07
3981.27	164.545	18.325	165.562	-6.35471	30.3227	3.30365	-8.37848e-05	2.1815	0.0267251	1	11	0.132668	0.000801317	-7.18041e-07	0.00074581	0.00600292	0.000668531	0.00604003	6.35471	-9.74127e-08
3546.6	165.834	19.0891	166.93	-6.56637	31.0829	3.30366	4.50164e-07	2.35084	0.0307416	1	11	0.132772	0.000795378	-3.78368e-07	0.00074581	0.00595125	0.000685044	0.00599055	6.56637	3.39674e-07
3161.01	167.222	19.8612	168.397	-6.77337	31.8427	3.30368	2.76585e-05	2.53506	0.0352638	1	11	0.132848	0.000788894	-1.49531e-07	0.000585472	0.00589689	0.000700383	0.00593834	6.77337	2.28837e-07
2817.3	168.722	20.6545	169.982	-6.97926	32.6029	3.30365	-8.06169e-05	2.7351	0.0403829	1	11	0.132899	0.000781843	-6.04131e-07	0.000505303	0.0058394	0.000714842	0.00588299	6.97926	-4.546e-07
2510.8	170.317	21.4614	171.663	-7.18192	33.3627	3.30366	4.89036e-05	2.95359	0.0461647	1	11	0.13293	0.000774362	-1.09114e-06	0.000825979	0.00577965	0.000728287	0.00582535	7.18192	-4.87007e-07
2237.85	172.029	22.2289	173.46	-7.36273	34.123	3.30366	-2.13561e-05	3.19941	0.0525425	1	11	0.132956	0.000766498	-8.48418e-07	0.000825979	0.0057175	0.000738792	0.00576503	7.36273	2.4272e-07
1995.64	173.817	22.9699	175.328	-7.52803	34.8827	3.30366	6.59926e-06	3.47199	0.059593	1	11	0.132966	0.000758383	-1.08444e-06	0.000825979	0.00565444	0.000747235	0.00570359	7.52803	-2.36026e-07
1778.29	175.741	23.67	177.328	-7.67082	35.643	3.30366	-1.81878e-05	3.78111	0.0673692	1	11	0.132965	0.000749825	-4.25597e-07	0.000665641	0.00558881	0.000752739	0.00563928	7.67082	6.58847e-07
1585.51	177.757	24.3152	179.412	-7.7891	36.4027	3.30366	-4.46509e-05	4.12833	0.0758274	1	11	0.13297	0.00074114	-5.23437e-07	0.000264796	0.00552233	0.000755395	0.00557376	7.7891	-9.78397e-08
1411.84	179.878	24.8962	181.592	-7.88003	37.1622	3.30366	-1.25964e-05	4.52796	0.0851086	1	11	0.132956	0.000732166	-1.05796e-06	0.000505303	0.00545484	0.000754984	0.00550684	7.88003	-5.34518e-07
1258.79	182.049	25.3755	183.809	-7.93523	37.9219	3.30365	-4.87516e-05	4.98256	0.0949616	1	11	0.132949	0.000723301	-1.52583e-06	0.000585472	0.00538834	0.000751072	0.00544044	7.93523	-4.67879e-07
1121.79	184.29	25.7595	186.082	-7.95708	38.6804	3.30366	-4.42776e-05	5.50768	0.105545	1	11	0.132934	0.000714388	-1.04615e-06	0.000986317	0.00532225	0.000743928	0.00537399	7.95708	4.79687e-07
1000.32	186.568	26.056	188.379	-7.95046	39.4397	3.30364	-9.03102e-05	6.10624	0.116822	1	11	0.132933	0.00070567	-6.81681e-07	0.000505303	0.00525743	0.000734249	0.00530846	7.95046	3.64466e-07
891.427	188.873	26.211	190.683	-7.90079	40.1975	3.30366	-7.61463e-05	6.81164	0.128704	1	11	0.132917	0.000697059	-7.10505e-07	0.000665641	0.00519452	0.000720872	0.0052443	7.90079	-2.88239e-08
794.238	191.181	26.2512	192.975	-7.81842	40.9569	3.30366	6.03707e-06	7.63346	0.141259	1	11	0.132904	0.000688714	-4.17396e-07	0.00074581	0.00513385	0.000704932	0.00518202	7.81842	2.9311e-07
707.509	193.461	26.2043	195.227	-7.71379	41.7184	3.30365	-1.37177e-05	8.58449	0.154661	1	11	0.132887	0.00068068	-7.96227e-07	0.000505303	0.00507588	0.000687531	0.00512223	7.71379	-3.78831e-07
631.01	195.713	26.06	197.44	-7.58456	42.4764	3.30366	1.0137e-05	9.67854	0.168612	1	11	0.132881	0.000673019	-1.16397e-06	0.000425134	0.00502051	0.000668503	0.00506483	7.58456	-3.67747e-07
562.339	197.907	25.8386	199.586	-7.43842	43.2319	3.30366	-8.30428e-05	10.9535	0.183581	1	11	0.132873	0.000665744	-8.0147e-07	0.000986317	0.0049682	0.000648645	0.00501037	7.43842	3.62503e-07
501.444	200.041	25.5331	201.664	-7.27384	43.9892	3.30366	-1.78185e-05	12.4307	0.19927	1	11	0.132867	0.000658853	-3.95066e-07	0.00114665	0.00491883	0.000627835	0.00495874	7.27384	4.06404e-07
446.859	202.104	25.1761	203.666	-7.10076	44.7459	3.30366	-6.23586e-05	14.1469	0.216172	1	11	0.132852	0.000652302	-8.29815e-07	0.000665641	0.00487234	0.000606947	0.00490999	7.10076	-4.34749e-07
398.089	204.08	24.761	205.577	-6.91787	45.5087	3.30365	-0.000136903	16.1463	0.23424	1	11	0.13285	0.000646231	-1.17807e-06	0.000906148	0.00482895	0.000585896	0.00486437	6.91787	-3.4826e-07
354.66	205.953	24.341	207.386	-6.74038	46.2679	3.30366	-0.000104663	18.4361	0.253974	1	11	0.132836	0.000640524	-8.24115e-07	0.000585472	0.0047886	0.000565953	0.00482193	6.74038	3.5396e-07
316.316	207.771	23.9154	209.143	-6.56609	47.0249	3.30366	-5.26693e-05	21.0389	0.275099	1	11	0.132834	0.000635132	-1.1491e-06	0.000986317	0.00475005	0.000546751	0.00478142	6.56609	-3.24988e-07
281.894	209.518	23.493	210.831	-6.39779	47.7804	3.30365	-9.08736e-05	24.0323	0.298404	1	11	0.132834	0.00063005	-1.16888e-06	0.00074581	0.0047136	0.000528531	0.00474314	6.39779	-1.97728e-08
251.044	211.198	23.0688	212.454	-6.23361	48.5369	3.30365	-0.000120506	27.4818	0.324015	1	11	0.132834	0.000625235	-1.8953e-06	0.000585472	0.00467908	0.000511088	0.00470691	6.23361	-7.26423e-07
223.925	212.794	22.7173	214.004	-6.09366	49.2997	3.30364	-7.05619e-05	31.2867	0.35256	1	11	0.132824	0.000620662	-2.54147e-06	0.000986317	0.00464642	0.000496038	0.00467282	6.09366	-6.46176e-07
199.553	214.341	22.3552	215.504	-5.95428	50.0592	3.30365	-0.000109883	35.6765	0.383912	1	11	0.13282	0.000616323	-2.09703e-06	0.000665641	0.00461526	0.00048136	0.00464029	5.95428	4.44446e-07
177.781	215.849	22.0443	216.972	-5.83129	50.8273	3.30365	-0.00012237	40.6105	0.419201	1	11	0.13282	0.000612154	-2.09543e-06	0.000906148	0.00458504	0.000468261	0.00460889	5.83129	1.60086e-09
158.428	217.306	21.7791	218.395	-5.72323	51.5938	3.30366	-8.37935e-05	46.1263	0.458713	1	11	0.132816	0.000608145	-2.1447e-06	0.000505303	0.00455604	0.000456619	0.00457886	5.72323	-4.92757e-08
141.311	218.72	21.574	219.781	-5.6333	52.3459	3.30365	-0.000118084	52.2051	0.503029	1	11	0.132816	0.000604311	-2.58514e-06	-0.000136049	0.00452801	0.000446632	0.00454999	5.6333	-4.40438e-07
125.846	220.12	21.3945	221.158	-5.55141	53.1014	3.30365	-0.000162251	59.1125	0.553198	1	11	0.132814	0.000600539	-2.08647e-06	0.000585472	0.00450046	0.00043742	0.00452166	5.55141	4.98669e-07
112.19	221.509	21.259	222.526	-5.48209	53.8469	3.30365	-0.000187408	66.7305	0.609039	1	11	0.132816	0.000596855	-1.44565e-06	0.00114665	0.0044733	0.000429318	0.00449385	5.48209	6.40824e-07
100.032	222.847	21.1884	223.852	-5.43138	54.6067	3.30365	-0.000208095	75.0902	0.672756	1	11	0.132813	0.000593306	-1.55141e-06	0.00106649	0.00444719	0.00042284	0.00446724	5.43138	-1.0576e-07
89.116	224.216	21.1597	225.212	-5.39117	55.3738	3.30366	-0.000123116	84.4023	0.745062	1	11	0.132811	0.000589715	-2.12195e-06	0.000585472	0.00442062	0.000417184	0.00444026	5.39117	-5.70542e-07
79.4155	225.538	21.1894	226.531	-5.36722	56.1382	3.30365	-0.000168587	94.5791	0.82752	1	11	0.132809	0.000586271	-1.49453e-06	0.000184627	0.00439505	0.000412918	0.0044144	5.36722	6.27414e-07
70.8387	226.866	21.2776	227.862	-5.35805	56.8894	3.30365	-0.000143056	105.591	0.920721	1	11	0.132806	0.000582833	-1.87372e-06	0.000665641	0.00436945	0.000409807	0.00438862	5.35805	-3.79188e-07
63.0823	228.205	21.4048	229.207	-5.35846	57.6698	3.30364	-0.000194491	117.87	1.02794	1	11	0.132801	0.000579396	-1.9851e-06	0.000825979	0.00434381	0.000407433	0.00436287	5.35846	-1.11377e-07
56.2418	229.538	21.5965	230.551	-5.37496	58.4133	3.30365	-0.000191882	131.032	1.14976	1	11	0.132801	0.000576014	-2.33499e-06	0.000425134	0.00431836	0.000406301	0.00433743	5.37496	-3.49886e-07
50.1444	230.856	21.8421	231.887	-5.40486	59.1702	3.30366	-0.000164673	145.313	1.28926	1	11	0.132804	0.00057271	-2.55275e-06	0.00074581	0.00429328	0.000406201	0.00431245	5.40486	-2.17768e-07
44.6712	232.196	22.1386	233.249	-5.44637	59.9342	3.30365	-0.000155915	160.932	1.44978	1	11	0.132802	0.000569358	-2.78741e-06	0.000665641	0.00426791	0.000406922	0.00428727	5.44637	-2.34658e-07
39.8089	233.543	22.5311	234.627	-5.51057	60.6967	3.30365	-0.000165233	177.442	1.63631	1	11	0.132803	0.000566016	-2.02705e-06	0.000986317	0.00424238	0.000409285	0.00426208	5.51057	7.60358e-07
35.4653	234.928	22.9423	236.046	-5.57763	61.4471	3.30365	-0.000162065	195.605	1.84783	1	11	0.132805	0.000562625	-3.19517e-06	0.00074581	0.00421641	0.000411761	0.00423647	5.57763	-1.16811e-06
31.6296	236.311	23.4621	237.473	-5.67002	62.1714	3.30365	-0.000209586	214.467	2.09347	1	11	0.132801	0.000559225	-3.72685e-06	0.000906148	0.00419041	0.000416044	0.00421101	5.67002	-5.31686e-07
28.1701	237.716	24.0516	238.93	-5.77739	62.9768	3.30365	-0.000247045	234.903	2.38031	1	11	0.132799	0.000555807	-2.88949e-06	0.00106649	0.00416407	0.00042131	0.00418533	5.77739	8.37363e-07
25.1044	239.16	24.7124	240.433	-5.89944	63.7329	3.30366	-0.000169519	256.54	2.71017	1	11	0.132805	0.000552355	-2.53914e-06	0.000665641	0.00413713	0.00042749	0.00415916	5.89944	3.50352e-07
22.3854	240.636	25.4639	241.98	-6.04052	64.4195	3.30363	-0.000325315	279.209	3.09188	1	11	0.132802	0.000548813	-3.39045e-06	0.000505303	0.00410963	0.000434878	0.00413258	6.04052	-8.51314e-07
19.9553	242.139	26.2901	243.562	-6.1966	65.1802	3.30366	-0.000285993	303.368	3.53457	1	11	0.132797	0.000545231	-2.68945e-06	0.000585472	0.00408175	0.000443174	0.00410574	6.1966	7.01006e-07
17.7961	243.735	27.2239	245.251	-6.37322	66.0245	3.30362	-0.000348145	328.506	4.04785	1	11	0.132801	0.000541492	-2.93744e-06	0.000585472	0.00405226	0.000452616	0.00407746	6.37322	-2.47995e-07
15.8576	245.392	28.2532	247.013	-6.56784	66.7459	3.30365	-5.75182e-05	355.235	4.64743	1	11	0.132794	0.000537601	-3.7931e-06	0.000585472	0.00402181	0.000463052	0.00404838	6.56784	-8.55662e-07
14.119	247.104	29.3546	248.841	-6.77468	67.5482	3.30363	-0.000280403	384.009	5.34378	1	11	0.132794	0.000533649	-4.77963e-06	0.000825979	0.00399057	0.000474058	0.00401863	6.77468	-9.86522e-07
12.6008	248.832	30.5612	250.701	-7.00193	68.4388	3.30361	-0.000356531	413.287	6.14156	1	11	0.132804	0.000529728	-3.00574e-06	0.000585472	0.00395906	0.000486247	0.00398881	7.00193	1.77389e-06
11.2249	250.729	31.8351	252.742	-7.23615	69.1229	3.30362	-0.000253755	445.382	7.06631	1	11	0.132797	0.000525428	-6.13493e-06	0.000825979	0.0039251	0.000498371	0.00395661	7.23615	-3.12919e-06
10.0032	252.69	33.3083	254.875	-7.50916	69.8827	3.30365	-0.000223564	477.67	8.1579	1	11	0.132807	0.000521065	-2.30439e-06	0.00074581	0.00388984	0.00051274	0.00392349	7.50916	3.83054e-06
8.91838	254.729	34.808	257.097	-7.78109	70.727	3.30361	-0.000286088	512.691	9.39767	1	11	0.132801	0.00051654	-5.65549e-06	0.00122682	0.00385378	0.000526606	0.00388959	7.78109	-3.3511e-06
7.93953	256.936	36.4371	259.507	-8.07151	71.6647	3.30362	-0.000419428	550.151	10.846	1	11	0.132799	0.000511736	-1.85154e-06	0.00074581	0.00381529	0.000541061	0.00385346	8.07151	3.80395e-06
7.07654	259.201	38.0917	261.985	-8.36023	72.223	3.3036	-0.000213874	590.431	12.4817	1	11	0.1328	0.000506897	-1.43926e-06	0.000825979	0.00377645	0.000554979	0.00381701	8.36023	4.12279e-07
6.31058	261.5	39.7846	264.509	-8.65065	72.8432	3.30359	0.000706553	633.921	14.3412	1	11	0.132799	0.000502058	-1.10187e-06	0.000425134	0.00373758	0.000568636	0.00378059	8.65065	3.37389e-07
5.6205	264.148	41.8042	267.435	-8.99307	73.7596	3.30361	0.000586972	677.369	16.5511	1	12	0.132798	0.000496563	-5.88827e-06	0.000986317	0.00369326	0.000584497	0.00373922	8.99307	-4.7864e-06
5.01444	266.757	43.8352	270.335	-9.3318	74.5172	3.30362	0.000776836	724.059	19.0378	1	12	0.1328	0.000491241	-4.49277e-06	0.000505303	0.00365016	0.000599817	0.00369911	9.3318	1.3955e-06
4.46939	269.422	46.0471	273.329	-9.69873	75.3585	3.30363	0.000821526	773.338	21.9484	1	12	0.132805	0.000485879	-1.03124e-05	0.00114665	0.0036063	0.000616355	0.00365859	9.69873	-5.81959e-06
3.97785	272.541	48.2875	276.786	-10.0471	76.2952	3.30362	-4.97684e-05	828.585	25.2185	1	12	0.132801	0.000479796	-1.3599e-05	0.000665641	0.0035575	0.0006303	0.00361291	10.0471	-3.28663e-06
3.55114	275.455	50.6654	280.076	-10.4221	77.3364	3.30362	-0.00037627	884.589	28.9476	1	12	0.132799	0.000474154	-4.3534e-06	0.000184627	0.00351155	0.000645891	0.00357046	10.4221	9.2456e-06
3.1604	278.795	53.0785	283.803	-10.7793	78.4992	3.30362	0.000488082	948.768	33.1866	1	12	0.132803	0.00046794	-5.84456e-06	0.000505303	0.0034614	0.000658999	0.00352357	10.7793	-1.49115e-06
2.81836	282.192	55.8202	287.66	-11.1892	79.7937	3.30364	0.000252205	1011.65	38.0938	1	12	0.132801	0.00046166	-1.57139e-05	0.000344965	0.00341024	0.000674576	0.00347632	11.1892	-9.86933e-06
2.51367	285.667	58.4915	291.594	-11.5716	81.2377	3.30363	-0.000263613	1082.48	43.5559	1	12	0.1328	0.000455428	-1.62444e-06	0.000906148	0.00335972	0.000687916	0.00342942	11.5716	1.40895e-05
2.23982	289.519	61.2959	295.936	-11.9539	82.8523	3.30363	0.000320755	1159.24	49.7326	1	12	0.1328	0.000448744	-9.96902e-06	0.00106649	0.00330583	0.000699898	0.0033791	11.9539	-8.34458e-06
1.99706	293.544	64.3695	300.518	-12.3683	84.6556	3.30364	1.09562e-05	1238.08	56.8024	1	12	0.132799	0.000441899	-1.28409e-05	0.00074581	0.00325035	0.000712751	0.00332758	12.3683	-2.87185e-06
1.77961	297.676	67.5988	305.254	-12.7943	86.6729	3.30364	2.76853e-05	1322.99	64.8798	1	12	0.1328	0.000435048	1.48318e-06	0.000585472	0.00319462	0.000725463	0.00327596	12.7943	1.43241e-05
1.58469	302.007	70.9289	310.224	-13.2169	88.9321	3.30364	0.000328547	1415.97	74.0201	1	12	0.132802	0.000428083	-2.04319e-05	0.000825979	0.00313809	0.000737008	0.00322348	13.2169	-2.19151e-05
1.41224	306.573	74.3531	315.461	-13.6327	91.4611	3.30365	-0.000231979	1515.7	84.2014	1	12	0.1328	0.000420973	3.8281e-06	0.000825979	0.00308066	0.000747149	0.00316996	13.6327	2.426e-05
1.25967	311.395	77.9263	320.997	-14.0497	94.29	3.30365	0.000359656	1621.35	95.5527	1	12	0.132797	0.000413702	-1.72443e-05	0.000665641	0.0030221	0.000756277	0.00311529	14.0497	-2.10724e-05
1.12249	316.508	81.7722	326.901	-14.486	97.4581	3.30364	-0.00020909	1733.94	108.496	1	12	0.1328	0.000406239	-3.27902e-06	0.000344965	0.00296178	0.000765199	0.00305903	14.486	1.39653e-05
1.00006	321.851	85.8466	333.103	-14.9347	101.007	3.30365	0.000274167	1853.83	123.128	1	12	0.132798	0.00039867	-7.19719e-06	0.000825979	0.00290066	0.000773686	0.00300207	14.9347	-3.91817e-06