File: utils/DE_206_5_30.mpt
EC-Lab ASCII FILE
Nb header lines : 60

Potentio Electrochemical Impedance Spectroscopy

Run on channel : 5 (SN 41380)
User :
CE vs. WE compliance from -10 V to 10 V
Electrode connection : standard
Ewe ctrl range : min = -10.00 V, max = 10.00 V
Acquisition started on : 12/03/2020 16:53:50
Technique started on : 12/03/2020 16:53:51
Saved on :
	File : DE_206_5_30.mpr
	Directory : P:\Chemistry\Data\VMP3\Kyler\DOE\DE_206\
	Host : 10.0.4.64
Device : VMP3 (SN 1432)
Address : USB
EC-Lab for windows v11.33 (software)
Internet server v11.32 (firmware)
Command interpretor v11.33 (firmware)
Electrode material :
Initial state :
Electrolyte :
Comments :
Electrode surface area : 0.001 cm²
Characteristic mass : 0.001 g
Equivalent Weight : 0.000 g/eq.
Density : 0.000 g/cm3
Record Analogic IN 1
Cycle Definition : Charge/Discharge alternance
Mode                Single sine
E (V)               0.0000
vs.                 Eoc
tE (h:m:s)          0:00:0.0000
record              0
dI                  1.000
unit dI             mA
dt (s)              0.000
fi                  1.000
unit fi             MHz
ff                  1.000
unit ff             Hz
Nd                  20
Points              per decade
spacing             Logarithmic
Va (mV)             128.0
pw                  0.50
Na                  3
corr                0
E range min (V)     -10.000
E range max (V)     10.000
I Range             Auto
Bandwidth           5
nc cycles           0
goto Ns'            0
nr cycles           0
inc. cycle          1

freq/Hz	Re(Z)/Ohm	-Im(Z)/Ohm	|Z|/Ohm	Phase(Z)/deg	time/s	<Ewe>/V	<I>/mA	Cs/µF	Cp/µF	cycle number	I Range	|Ewe|/V	|I|/A	(Q-Qo)/mA.h	Analog IN 1/V	Re(Y)/Ohm-1	Im(Y)/Ohm-1	|Y|/Ohm-1	Phase(Y)/deg	dq/mA.h
1.00002e+06	67.4491	19.2264	70.1358	-15.9102	1.64547	3.32185	0.00223738	0.00827779	0.000622057	1	11	0.000418734	5.97033e-06	1.00102e-06	0.000865779	0.0137119	0.00390857	0.0142581	15.9102	1.00102e-06
891247	69.6189	17.8015	71.8588	-14.3432	2.24149	3.32125	-0.000563096	0.0100315	0.000615629	1	11	0.000856838	1.19239e-05	8.59078e-07	0.00158688	0.0134824	0.00344744	0.0139162	14.3432	-1.41938e-07
794333	72.4137	16.5788	74.2873	-12.8953	2.83647	3.32094	-0.00166518	0.0120855	0.000601923	1	11	0.0012443	1.67499e-05	6.14835e-07	0.00142663	0.0131217	0.00300416	0.0134612	12.8953	-2.44243e-07
707950	74.7696	16.5965	76.5894	-12.515	3.4325	3.32076	-0.00227176	0.0135457	0.000636058	1	11	0.00133418	1.74198e-05	5.96232e-08	0.00134651	0.0127464	0.0028293	0.0130566	12.515	-5.55211e-07
630957	76.9866	15.8705	78.6054	-11.6481	4.02849	3.32068	-0.00254191	0.0158939	0.000647897	1	11	0.00086134	1.09578e-05	-1.34812e-07	0.00118627	0.0124598	0.00256853	0.0127218	11.6481	-1.94435e-07
562342	78.808	15.8055	80.3773	-11.3406	4.62449	3.32059	-0.00284661	0.0179065	0.000692404	1	11	0.000396659	4.93496e-06	-3.18775e-07	0.00110615	0.0121984	0.00244647	0.0124413	11.3406	-1.83963e-07
501206	81.1419	15.9042	82.6859	-11.0896	5.22149	3.32056	-0.00287368	0.019966	0.000738673	1	11	0.00261074	3.15742e-05	-1.06764e-06	0.00206761	0.0118681	0.00232621	0.012094	11.0896	-7.48865e-07
446686	82.9439	15.5519	84.3893	-10.6196	5.81648	3.32054	-0.00294201	0.0229105	0.000778085	1	11	0.00588142	6.96939e-05	-1.11978e-06	0.00110615	0.0116469	0.00218378	0.0118498	10.6196	-5.21391e-08
398103	84.4812	15.3532	85.8649	-10.3002	6.41147	3.32051	-0.00303927	0.0260391	0.000832513	1	11	0.0102246	0.000119077	-1.80996e-06	0.00142663	0.0114585	0.00208241	0.0116462	10.3002	-6.90184e-07
354810	86.0167	14.9934	87.3137	-9.88774	7.00748	3.32047	-0.0032732	0.0299175	0.000882183	1	11	0.0156988	0.000179797	-2.24831e-06	0.00134651	0.0112828	0.00196668	0.011453	9.88774	-4.38351e-07
316230	87.4182	14.6638	88.6396	-9.52232	7.60348	3.32044	-0.00334377	0.0343218	0.000939309	1	11	0.0222881	0.000251446	-3.1493e-06	0.00118627	0.0111262	0.00186634	0.0112816	9.52232	-9.00983e-07
281835	88.6707	14.2826	89.8136	-9.15031	8.19949	3.3204	-0.00328571	0.0395383	0.000999882	1	11	0.029955	0.000333524	-3.84156e-06	0.00126639	0.0109925	0.00177061	0.0111342	9.15031	-6.9226e-07
251188	89.8355	13.8656	90.8992	-8.77405	8.79448	3.32033	-0.0035764	0.0456965	0.00106326	1	11	0.0387956	0.000426799	-4.9311e-06	0.00134651	0.0108725	0.0016781	0.0110012	8.77405	-1.08954e-06
223872	90.922	13.4775	91.9154	-8.43166	9.3895	3.32035	-0.00334899	0.0527486	0.00113411	1	11	0.0486854	0.000529676	-4.90494e-06	0.00126639	0.010762	0.00159527	0.0108796	8.43166	2.6163e-08
199544	91.939	13.0759	92.8642	-8.09454	9.98547	3.32032	-0.00329261	0.0609973	0.00120937	1	11	0.0596495	0.000642331	-4.39319e-06	0.00150676	0.0106611	0.00151627	0.0107684	8.09454	5.11748e-07
177832	92.8801	12.6882	93.7428	-7.77894	10.5815	3.32027	-0.00367497	0.0705359	0.00129222	1	11	0.0716105	0.000763904	-4.10962e-06	0.00134651	0.0105693	0.00144386	0.0106675	7.77894	2.8357e-07
158486	93.801	12.3239	94.6071	-7.48482	11.1765	3.32032	-0.00312999	0.0814859	0.0013827	1	11	0.0844726	0.000892879	-4.9256e-06	0.00150676	0.01048	0.00137689	0.01057	7.48482	-8.15981e-07
141256	94.6539	11.9555	95.4059	-7.19878	11.7715	3.32026	-0.00361765	0.0942421	0.0014799	1	11	0.098304	0.00103038	-6.57266e-06	0.00126639	0.0103989	0.00131346	0.0104815	7.19878	-1.64706e-06
125909	95.4716	11.6021	96.174	-6.92882	12.3675	3.32027	-0.00351757	0.10895	0.00158556	1	11	0.113091	0.0011759	-6.0471e-06	0.00126639	0.0103219	0.00125435	0.0103978	6.92882	5.25558e-07
112205	96.2423	11.2696	96.8998	-6.67867	12.8275	3.32038	-0.00241455	0.125864	0.00170243	1	11	0.129068	0.00133197	-7.17052e-06	0.00110615	0.0102499	0.00120022	0.0103199	6.67867	-1.12342e-06
100004	97.0019	10.9447	97.6173	-6.43744	13.4235	3.32029	-0.0032517	0.145412	0.0018279	1	11	0.129557	0.00132719	-5.70946e-06	0.001667	0.0101795	0.00114855	0.0102441	6.43744	1.46106e-06
89129.3	97.7138	10.6464	98.292	-6.21811	14.0185	3.32031	-0.00310459	0.167725	0.00196772	1	11	0.12977	0.00132025	-7.30026e-06	0.00102602	0.0101139	0.00110196	0.0101738	6.21811	-1.5908e-06
79433.3	98.3893	10.3625	98.9335	-6.0123	14.6145	3.32031	-0.00333516	0.193354	0.00212127	1	11	0.129704	0.00131103	-8.3582e-06	0.00158688	0.0100522	0.00105871	0.0101078	6.0123	-1.05793e-06
70795	99.0396	10.1019	99.5534	-5.82397	15.2105	3.32035	-0.00284582	0.222543	0.00229145	1	11	0.129722	0.00130304	-1.16016e-05	0.000785657	0.00999301	0.00101928	0.0100449	5.82397	-3.24339e-06
63093.8	99.6532	9.86677	100.14	-5.65449	15.8065	3.32033	-0.00312008	0.255657	0.00248193	1	11	0.129552	0.00129371	-1.10371e-05	0.00118627	0.00993739	0.000983912	0.00998597	5.65449	5.64455e-07
56237	100.244	9.66722	100.71	-5.50837	16.4015	3.32035	-0.00303383	0.29275	0.00269748	1	11	0.129416	0.00128504	-1.25593e-05	0.00182724	0.0098837	0.000953149	0.00992955	5.50837	-1.52213e-06
50122.5	100.801	9.49698	101.247	-5.38226	16.9975	3.32035	-0.00293339	0.33435	0.00294177	1	11	0.129363	0.0012777	-1.39131e-05	0.00102602	0.00983329	0.000926448	0.00987683	5.38226	-1.35385e-06
44666.7	101.346	9.35426	101.777	-5.27346	17.4575	3.32037	-0.00283425	0.380914	0.0032177	1	11	0.140714	0.00138257	-1.496e-05	0.00142663	0.00978381	0.000903045	0.00982539	5.27346	-1.04689e-06
39814.1	101.866	9.2486	102.285	-5.18777	18.0545	3.32034	-0.00317703	0.432223	0.00353376	1	11	0.130456	0.00127542	-1.57696e-05	0.00102602	0.00973658	0.000884003	0.00977663	5.18777	-8.09592e-07
35481	102.381	9.18108	102.792	-5.12431	18.5135	3.32037	-0.0030566	0.488574	0.0038976	1	11	0.140013	0.0013621	-1.6897e-05	0.00158688	0.00968948	0.000868907	0.00972836	5.12431	-1.12745e-06
31621.1	102.883	9.15606	103.289	-5.08564	19.1085	3.32037	-0.00286954	0.549711	0.00431956	1	11	0.130109	0.00125965	-1.58724e-05	0.001667	0.00964342	0.000858216	0.00968153	5.08564	1.02462e-06
28188.1	103.375	9.1732	103.781	-5.07098	19.5685	3.32038	-0.00286692	0.615508	0.00480881	1	11	0.137606	0.00132592	-1.64094e-05	0.000945901	0.00959794	0.000851693	0.00963566	5.07098	-5.37003e-07
25116.9	103.865	9.21998	104.273	-5.07279	20.1645	3.32037	-0.00292593	0.687264	0.00537326	1	11	0.129627	0.00124315	-1.86665e-05	0.00134651	0.00955262	0.000847977	0.00959018	5.07279	-2.25706e-06
22389	104.358	9.31637	104.773	-5.10144	20.6235	3.32038	-0.0029754	0.763024	0.00603296	1	11	0.135251	0.00129089	-1.80784e-05	0.000785657	0.00950661	0.000848683	0.00954442	5.10144	5.88098e-07
19948.8	104.856	9.46097	105.282	-5.15574	21.0825	3.32038	-0.00302935	0.843273	0.00680978	1	11	0.14023	0.00133195	-1.82552e-05	0.00142663	0.00945989	0.000853551	0.00949832	5.15574	-1.76793e-07
17786.9	105.367	9.6431	105.808	-5.22907	21.6785	3.32039	-0.00299221	0.927905	0.00770728	1	11	0.129666	0.00122549	-1.7494e-05	0.00118627	0.00941177	0.000861353	0.0094511	5.22907	7.61132e-07
15847.7	105.89	9.88414	106.35	-5.33274	22.1375	3.32038	-0.00295412	1.01605	0.00877639	1	11	0.133003	0.00125062	-1.74404e-05	0.00134651	0.00936219	0.0008739	0.00940289	5.33274	5.36636e-08
14121.9	106.43	10.1615	106.914	-5.45385	22.5965	3.32038	-0.00299743	1.1091	0.0100189	1	11	0.135793	0.00127012	-1.8663e-05	0.00102602	0.009311	0.000888979	0.00935334	5.45385	-1.22259e-06
12590.9	106.993	10.4898	107.506	-5.59947	23.0555	3.32039	-0.00295057	1.20503	0.0114726	1	11	0.138094	0.00128452	-1.86586e-05	0.00134651	0.00925742	0.000907612	0.00930181	5.59947	4.38252e-09
11217.7	107.596	10.8664	108.143	-5.76691	23.5145	3.32038	-0.00305064	1.30566	0.0131827	1	11	0.139998	0.00129456	-1.96765e-05	0.00102602	0.00920021	0.000929155	0.00924701	5.76691	-1.01791e-06
10002.2	108.227	11.2746	108.813	-5.94732	24.1095	3.32038	-0.00296345	1.41131	0.0151517	1	11	0.129399	0.00118918	-2.16045e-05	0.00134651	0.00914061	0.000952221	0.00919007	5.94732	-1.92803e-06
8914.93	108.901	11.7507	109.533	-6.15856	24.5919	3.32042	-0.00262702	1.51928	0.0174854	1	11	0.13051	0.00119152	-2.19783e-05	0.00110615	0.00907698	0.000979433	0.00912966	6.15856	-3.7379e-07
7944	109.62	12.2618	110.303	-6.38246	25.118	3.32044	-0.0025081	1.6339	0.0201911	1	11	0.131382	0.0011911	-2.16863e-05	0.00126639	0.00900972	0.00100781	0.00906591	6.38246	2.92029e-07
7082.23	110.393	12.8133	111.134	-6.62069	25.6949	3.32044	-0.00253461	1.75383	0.0233139	1	11	0.132063	0.00118832	-2.32243e-05	0.00110615	0.0089381	0.00103745	0.00899811	6.62069	-1.53796e-06
6307.73	111.23	13.412	112.035	-6.87551	26.3296	3.32045	-0.00258408	1.88127	0.0269607	1	11	0.132598	0.00118353	-2.30014e-05	0.00110615	0.00886156	0.00106852	0.00892574	6.87551	2.22812e-07
5621.06	112.138	14.0398	113.013	-7.13637	27.0303	3.32047	-0.00232793	2.0167	0.0311246	1	11	0.133004	0.00117689	-2.38838e-05	0.00174712	0.00877996	0.00109926	0.0088485	7.13637	-8.824e-07
5011.6	113.114	14.6931	114.064	-7.40111	27.7907	3.32048	-0.00234436	2.16137	0.0358641	1	11	0.133307	0.0011687	-2.35715e-05	0.00110615	0.00869397	0.00112932	0.00876701	7.40111	3.12372e-07
4466.43	114.181	15.373	115.212	-7.66802	28.5497	3.3205	-0.00226259	2.31793	0.0412692	1	11	0.133547	0.00115915	-2.48908e-05	0.00118627	0.00860206	0.00115816	0.00867968	7.66802	-1.31932e-06
3981.27	115.319	16.0662	116.433	-7.93134	29.3097	3.3205	-0.00226464	2.4882	0.047376	1	11	0.133708	0.00114837	-2.59049e-05	0.00118627	0.00850647	0.00118511	0.00858863	7.93134	-1.01406e-06
3546.6	116.57	16.7729	117.771	-8.1879	30.069	3.32048	-0.00237498	2.67547	0.0542678	1	11	0.133827	0.00113633	-2.55019e-05	0.00174712	0.00840452	0.0012093	0.00849108	8.1879	4.02994e-07
3161.01	117.916	17.46	119.202	-8.42265	30.8287	3.32049	-0.0023509	2.8837	0.0618689	1	11	0.13391	0.00112339	-2.51801e-05	0.00118627	0.00829866	0.00122879	0.00838914	8.42265	3.21747e-07
2817.3	119.354	18.1255	120.722	-8.63517	31.588	3.32048	-0.00241998	3.11671	0.0702591	1	11	0.133955	0.00110961	-2.50542e-05	0.00102602	0.00818956	0.0012437	0.00828346	8.63517	1.25912e-07
2510.8	120.886	18.7653	122.334	-8.82366	32.3477	3.32049	-0.00235295	3.37794	0.079482	1	11	0.133974	0.00109515	-2.60617e-05	0.00126639	0.0080776	0.0012539	0.00817435	8.82366	-1.00747e-06
2237.85	122.518	19.3499	124.037	-8.97486	33.1079	3.32049	-0.00237218	3.67546	0.0894471	1	11	0.13398	0.00108016	-2.73411e-05	0.00118627	0.00796342	0.0012577	0.00806213	8.97486	-1.27938e-06
1995.64	124.238	19.8615	125.816	-9.0828	33.8677	3.3205	-0.00238245	4.01538	0.100065	1	11	0.133967	0.00106479	-2.74443e-05	0.00134651	0.00784848	0.00125471	0.00794814	9.0828	-1.03279e-07
1778.29	126.043	20.3061	127.669	-9.15196	34.627	3.32049	-0.00240261	4.40747	0.1115	1	11	0.133953	0.00104922	-2.86471e-05	0.00158688	0.00773306	0.00124583	0.00783278	9.15196	-1.2028e-06
1585.51	127.909	20.648	129.565	-9.16998	35.3867	3.3205	-0.00231076	4.86155	0.123468	1	11	0.133931	0.0010337	-2.93885e-05	0.00150676	0.0076195	0.00122999	0.00771814	9.16998	-7.41392e-07
1411.84	129.848	20.8804	131.516	-9.13532	36.1472	3.32049	-0.00249111	5.3988	0.136087	1	11	0.133906	0.00101818	-2.90562e-05	0.001667	0.00750719	0.0012072	0.00760363	9.13532	3.32324e-07
1258.79	131.797	20.9831	133.457	-9.04599	36.907	3.32049	-0.00244444	6.02555	0.148954	1	11	0.133874	0.00100312	-2.90222e-05	0.00182724	0.00739985	0.00117811	0.00749304	9.04599	3.39824e-08
1121.79	133.764	20.9741	135.398	-8.9114	37.6654	3.32048	-0.00245097	6.76431	0.162318	1	11	0.133847	0.000988548	-2.96232e-05	0.00134651	0.00729648	0.00114409	0.00738563	8.9114	-6.00945e-07
1000.32	135.711	20.8336	137.301	-8.72759	38.4247	3.3205	-0.00239925	7.63688	0.175832	1	11	0.133827	0.000974699	-2.92812e-05	0.00126639	0.00719892	0.00110514	0.00728325	8.72759	3.42006e-07
891.427	137.638	20.5744	139.167	-8.50174	39.1834	3.32049	-0.00246852	8.67776	0.189665	1	11	0.133802	0.000961447	-2.89804e-05	0.00134651	0.00710664	0.00106232	0.0071856	8.50174	3.00794e-07
794.238	139.499	20.2033	140.955	-8.24069	39.9429	3.32049	-0.00243248	9.91852	0.203766	1	11	0.133772	0.000949042	-3.01273e-05	0.00134651	0.00702122	0.00101686	0.00709447	8.24069	-1.14693e-06
707.509	141.289	19.7247	142.659	-7.94745	40.7055	3.32049	-0.00246852	11.4045	0.218022	1	11	0.133751	0.000937555	-2.98325e-05	0.00126639	0.0069424	0.000969198	0.00700973	7.94745	2.94789e-07
631.01	142.973	19.1785	144.253	-7.6401	41.4634	3.32049	-0.00244089	13.1513	0.23246	1	11	0.133732	0.000927066	-2.96572e-05	0.00142663	0.00687072	0.000921645	0.00693226	7.6401	1.75337e-07
562.339	144.56	18.5548	145.746	-7.31412	42.2199	3.32048	-0.00247561	15.2534	0.24722	1	11	0.133716	0.000917455	-3.02254e-05	0.00142663	0.00680542	0.000873498	0.00686125	7.31412	-5.68181e-07
501.444	146.039	17.8974	147.132	-6.98688	42.9772	3.32049	-0.00248681	17.7341	0.262407	1	11	0.133707	0.000908756	-3.01625e-05	0.00150676	0.00674617	0.000826757	0.00679664	6.98688	6.28225e-08
446.859	147.407	17.2185	148.409	-6.66247	43.7329	3.32049	-0.00250437	20.685	0.278434	1	11	0.133686	0.000900791	-3.10494e-05	0.00142663	0.00669263	0.000781759	0.00673813	6.66247	-8.86884e-07
398.089	148.656	16.5116	149.57	-6.33802	44.4957	3.32049	-0.00255701	24.213	0.29508	1	11	0.133679	0.000893755	-3.12121e-05	0.00142663	0.00664495	0.000738073	0.00668582	6.33802	-1.6266e-07
354.66	149.812	15.827	150.646	-6.03066	45.2549	3.32049	-0.00253088	28.3538	0.312962	1	11	0.133673	0.000887331	-3.2407e-05	0.00158688	0.00660135	0.000697402	0.00663809	6.03066	-1.19488e-06
316.316	150.853	15.1774	151.614	-5.74524	46.0119	3.32049	-0.00247916	33.1514	0.332213	1	11	0.133664	0.000881608	-3.23244e-05	0.00134651	0.00656255	0.000660264	0.00659569	5.74524	8.25603e-08
281.894	151.813	14.5619	152.51	-5.47902	46.7674	3.32048	-0.00249242	38.7719	0.353471	1	11	0.133656	0.000876378	-3.30527e-05	0.00134651	0.00652699	0.000626066	0.00655695	5.47902	-7.28346e-07
251.044	152.698	13.9899	153.338	-5.23473	47.5239	3.3205	-0.00241232	45.3162	0.377214	1	11	0.133656	0.000871648	-3.26462e-05	0.00126639	0.00649436	0.000595002	0.00652156	5.23473	4.06493e-07
223.925	153.487	13.4905	154.079	-5.023	48.2867	3.32049	-0.00250324	52.6853	0.403885	1	11	0.133646	0.000867387	-3.23344e-05	0.00158688	0.00646525	0.000568251	0.00649017	5.023	3.11816e-07
199.553	154.246	13.0322	154.796	-4.82943	49.0482	3.32049	-0.00249316	61.1989	0.433772	1	11	0.133645	0.000863365	-3.23293e-05	0.00134651	0.00643719	0.000543876	0.00646012	4.82943	5.14725e-09
177.781	154.942	12.6457	155.457	-4.66587	49.8153	3.32049	-0.00250157	70.7934	0.468439	1	11	0.133639	0.000859651	-3.29473e-05	0.001667	0.00641132	0.000523262	0.00643264	4.66587	-6.18016e-07
158.428	155.611	12.3154	156.097	-4.52511	50.5818	3.32049	-0.00251519	81.5713	0.507746	1	11	0.133639	0.000856126	-3.28116e-05	0.00134651	0.00638629	0.000505428	0.00640626	4.52511	1.35692e-07
141.311	156.23	12.0625	156.695	-4.41504	51.3339	3.32049	-0.0024491	93.3698	0.553313	1	11	0.133637	0.00085285	-3.35881e-05	0.00134651	0.0063629	0.000491279	0.00638184	4.41504	-7.76486e-07
125.846	156.847	11.8775	157.296	-4.33057	52.0894	3.32049	-0.00244238	106.477	0.607117	1	11	0.133636	0.00084958	-3.40401e-05	0.00142663	0.00633929	0.000480055	0.00635744	4.33057	-4.51977e-07
112.19	157.44	11.7484	157.878	-4.26758	52.8349	3.32048	-0.00248234	120.75	0.668656	1	11	0.133628	0.000846401	-3.47467e-05	0.00142663	0.00631646	0.000471342	0.00633402	4.26758	-7.06599e-07
100.032	158.023	11.697	158.455	-4.23338	53.5947	3.32048	-0.00246871	136.021	0.741215	1	11	0.133628	0.00084332	-3.58098e-05	0.00150676	0.00629372	0.000465868	0.00631094	4.23338	-1.06317e-06
89.116	158.598	11.7035	159.03	-4.22039	54.3607	3.32049	-0.00245284	152.598	0.826464	1	11	0.133624	0.000840243	-3.62114e-05	0.001667	0.00627108	0.000462764	0.00628814	4.22039	-4.01552e-07
79.4155	159.206	11.7751	159.641	-4.22995	55.1242	3.32049	-0.00244275	170.197	0.92595	1	11	0.133629	0.000837056	-3.71403e-05	0.00134651	0.00624698	0.000462033	0.00626404	4.22995	-9.28901e-07
70.8387	159.787	11.8861	160.229	-4.25423	55.8754	3.32049	-0.00242969	189.021	1.04018	1	11	0.133627	0.000833974	-3.72168e-05	0.00134651	0.00622388	0.000462976	0.00624107	4.25423	-7.64623e-08
63.0823	160.413	12.0934	160.868	-4.31135	56.6559	3.32049	-0.00237106	208.623	1.17903	1	11	0.133626	0.000830655	-3.78738e-05	0.00142663	0.0061987	0.000467317	0.00621629	4.31135	-6.57078e-07
56.2418	161.045	12.3356	161.517	-4.38013	57.4003	3.32049	-0.0024379	229.404	1.33809	1	11	0.133626	0.000827315	-3.7733e-05	0.00110615	0.00617321	0.00047285	0.00619129	4.38013	1.40793e-07
50.1444	161.696	12.6542	162.19	-4.47481	58.1572	3.32049	-0.00251893	250.82	1.5268	1	11	0.133626	0.000823886	-3.769e-05	0.00142663	0.0061468	0.000481044	0.0061656	4.47481	4.30851e-08
44.6712	162.386	13.0195	162.907	-4.58398	58.9212	3.32049	-0.00245751	273.651	1.74788	1	11	0.133625	0.000820256	-3.83422e-05	0.00126639	0.00611885	0.00049059	0.00613849	4.58398	-6.52246e-07
39.8089	163.104	13.4444	163.657	-4.71217	59.6837	3.32049	-0.00251464	297.37	2.00684	1	11	0.133622	0.000816474	-3.92982e-05	0.00142663	0.00608969	0.000501966	0.00611034	4.71217	-9.55995e-07
35.4653	163.837	13.9321	164.429	-4.86051	60.4341	3.3205	-0.00245526	322.107	2.31247	1	11	0.133623	0.00081265	-3.95336e-05	0.00158688	0.00605979	0.0005153	0.00608166	4.86051	-2.3541e-07
31.6296	164.639	14.4607	165.273	-5.01957	61.1585	3.32049	-0.00260761	347.966	2.66387	1	11	0.133628	0.000808525	-3.91539e-05	0.00126639	0.00602738	0.000529402	0.00605059	5.01957	3.79737e-07
28.1701	165.474	15.0644	166.158	-5.20175	61.9638	3.32049	-0.00257849	375.043	3.08277	1	11	0.133623	0.000804191	-3.88492e-05	0.00182724	0.00599359	0.000545643	0.00601837	5.20175	3.04687e-07
25.1044	166.35	15.7161	167.091	-5.39706	62.7199	3.32049	-0.00240411	403.39	3.5687	1	11	0.133624	0.00079971	-3.94889e-05	0.00102602	0.00595824	0.000562911	0.00598478	5.39706	-6.39715e-07
22.3854	167.268	16.4186	168.072	-5.60607	63.4064	3.32047	-0.00241326	433.03	4.13241	1	11	0.133625	0.000795048	-4.13366e-05	0.00158688	0.00592138	0.00058123	0.00594984	5.60607	-1.84772e-06
19.9553	168.256	17.1844	169.131	-5.83156	64.1672	3.32049	-0.00247842	464.116	4.79127	1	11	0.133625	0.000790067	-4.28159e-05	0.00150676	0.00588198	0.000600743	0.00591258	5.83156	-1.4793e-06
17.7961	169.273	17.9954	170.227	-6.06833	65.0115	3.32046	-0.00292192	496.974	5.55394	1	11	0.133622	0.000784968	-4.36522e-05	0.00142663	0.00584161	0.000621022	0.00587452	6.06833	-8.3624e-07
15.8576	170.374	18.8782	171.417	-6.32281	65.7329	3.3205	-0.00275174	531.647	6.44815	1	11	0.133618	0.000779491	-4.02764e-05	0.00102602	0.00579824	0.000642469	0.00583373	6.32281	3.37574e-06
14.119	171.536	19.8128	172.676	-6.58861	66.5352	3.32051	-0.00235781	568.946	7.49028	1	11	0.133621	0.000773822	-4.30389e-05	0.00142663	0.00575294	0.000664479	0.00579119	6.58861	-2.76248e-06
12.6008	172.759	20.7965	174.006	-6.86416	67.4259	3.32047	-0.00275538	607.34	8.67526	1	11	0.133621	0.000767908	-4.56829e-05	0.00102602	0.00570573	0.000686848	0.00574692	6.86416	-2.64399e-06
11.2249	174.071	21.8465	175.437	-7.15342	68.1099	3.32047	-0.00294292	649.018	10.0642	1	11	0.133621	0.000761649	-4.21244e-05	0.00182724	0.0056557	0.000709809	0.00570006	7.15342	3.5585e-06
10.0032	175.461	22.9503	176.955	-7.452	68.8707	3.32048	-0.00266119	693.254	11.6612	1	11	0.133616	0.000755082	-4.27838e-05	0.00134651	0.00560341	0.000732928	0.00565114	7.452	-6.59367e-07
8.91838	176.896	24.0862	178.528	-7.75373	69.715	3.32046	-0.00278302	740.911	13.4862	1	11	0.133618	0.000748443	-4.62271e-05	0.00110615	0.00555015	0.000755711	0.00560137	7.75373	-3.44332e-06
7.93953	178.438	25.3299	180.227	-8.07936	70.6527	3.32048	-0.00279366	791.391	15.6322	1	11	0.133617	0.000741379	-4.46548e-05	0.00190737	0.00549348	0.000779819	0.00554856	8.07936	1.57228e-06
7.07654	180.028	26.637	181.987	-8.41647	71.211	3.32045	-0.00285294	844.333	18.0885	1	11	0.133615	0.000734197	-4.61311e-05	0.00118627	0.00543571	0.000804271	0.00549488	8.41647	-1.47629e-06
6.31058	181.759	27.924	183.892	-8.73417	71.8312	3.32047	-0.00345037	903.177	20.8259	1	11	0.133617	0.000726606	-4.98607e-05	0.00158688	0.00537492	0.000825758	0.00543798	8.73417	-3.72965e-06
5.6205	183.537	29.3426	185.868	-9.08317	72.5177	3.32047	-0.00348678	965.044	24.0511	1	11	0.133617	0.000718882	-5.32308e-05	0.00134651	0.00531271	0.000849357	0.00538017	9.08317	-3.37005e-06
5.01444	185.3	30.7725	187.838	-9.42896	73.2752	3.32048	-0.00405714	1031.42	27.6817	1	11	0.133623	0.000711373	-5.02762e-05	0.00142663	0.00525181	0.000872159	0.00532374	9.42896	2.95455e-06
4.46939	187.328	32.435	190.115	-9.82314	74.1165	3.32045	-0.00353439	1097.89	31.9561	1	11	0.133619	0.000702833	-4.19388e-05	0.00182724	0.00518286	0.000897391	0.00525997	9.82314	8.33747e-06
3.97785	189.429	33.9942	192.455	-10.1738	75.0532	3.32048	-0.00233672	1176.97	36.7212	1	11	0.133625	0.000694314	-4.60388e-05	0.001667	0.00511431	0.000917793	0.00519601	10.1738	-4.10006e-06
3.55114	191.59	35.7755	194.901	-10.577	76.0944	3.32047	-0.00260631	1252.76	42.2095	1	11	0.133616	0.000685557	-5.88067e-05	0.001667	0.00504363	0.000941797	0.00513081	10.577	-1.27679e-05
3.1604	193.875	37.5158	197.472	-10.9517	77.2572	3.32048	-0.00323539	1342.34	48.4488	1	11	0.13362	0.000676652	-4.75259e-05	0.00158688	0.00497179	0.000962066	0.00506402	10.9517	1.12808e-05
2.81836	196.322	39.3996	200.237	-11.3479	78.5527	3.32049	-0.0023395	1433.28	55.4917	1	11	0.13362	0.00066731	-4.54304e-05	0.00118627	0.00489646	0.000982663	0.00499409	11.3479	2.0955e-06
2.51367	198.769	41.4303	203.041	-11.7738	79.9967	3.32048	-0.00241885	1528.24	63.6301	1	11	0.133617	0.000658081	-6.49167e-05	0.00118627	0.00482149	0.00100497	0.00492511	11.7738	-1.94862e-05
2.23982	201.35	43.46	205.987	-12.18	81.6114	3.32047	-0.00342839	1635	72.7806	1	11	0.133617	0.000648669	-4.39978e-05	0.000945901	0.00474539	0.00102426	0.00485467	12.18	2.09188e-05
1.99706	204.18	45.5832	209.206	-12.5849	83.4157	3.32049	-0.00204668	1748.33	83.0011	1	11	0.133618	0.00063869	-5.85995e-05	0.000945901	0.00466513	0.00104149	0.00477997	12.5849	-1.46017e-05
1.77961	207.12	47.8994	212.587	-13.0215	85.4339	3.32048	-0.0030599	1867.09	94.7879	1	11	0.133621	0.000628549	-6.31105e-05	0.00150676	0.00458301	0.00105988	0.00470397	13.0215	-4.51096e-06
1.58469	210.169	50.3819	216.123	-13.4806	87.6931	3.32049	-0.00272911	1993.44	108.33	1	11	0.133619	0.000618256	-4.45155e-05	0.00102602	0.00449951	0.00107863	0.00462699	13.4806	1.8595e-05
1.41224	213.328	52.9368	219.798	-13.9363	90.2221	3.32049	-0.00228673	2128.9	123.487	1	11	0.133618	0.000607916	-7.96849e-05	0.00198749	0.00441571	0.00109575	0.00454964	13.9363	-3.51694e-05
1.25967	216.628	55.5383	223.634	-14.3796	93.0509	3.32049	-0.00312004	2274.94	140.307	1	11	0.133619	0.000597488	-4.17309e-05	0.00158688	0.00433151	0.0011105	0.00447159	14.3796	3.7954e-05
1.12249	220.188	58.3186	227.78	-14.8346	96.2191	3.32049	-0.00220736	2431.26	159.373	1	11	0.133615	0.000586596	-8.42155e-05	0.00142663	0.00424387	0.00112402	0.0043902	14.8346	-4.24846e-05
1.00006	223.94	61.2584	232.167	-15.2989	99.7683	3.32049	-0.00308838	2597.93	180.866	1	11	0.133618	0.000575524	-5.21072e-05	0.00118627	0.0041546	0.00113648	0.00430724	15.2989	3.21082e-05