File: utils/DE_206_9_30.mpt
EC-Lab ASCII FILE
Nb header lines : 60

Potentio Electrochemical Impedance Spectroscopy

Run on channel : 9 (SN 41381)
User :
CE vs. WE compliance from -10 V to 10 V
Electrode connection : standard
Ewe ctrl range : min = -5.00 V, max = 5.00 V
Acquisition started on : 12/03/2020 16:53:14
Technique started on : 12/03/2020 16:53:15
Saved on :
	File : DE_206_9_30.mpr
	Directory : P:\Chemistry\Data\VMP3\Kyler\DOE\DE_206\
	Host : 10.0.4.64
Device : VMP3 (SN 1432)
Address : USB
EC-Lab for windows v11.33 (software)
Internet server v11.32 (firmware)
Command interpretor v11.33 (firmware)
Electrode material :
Initial state :
Electrolyte :
Comments :
Electrode surface area : 0.001 cm²
Characteristic mass : 0.001 g
Equivalent Weight : 0.000 g/eq.
Density : 0.000 g/cm3
Record Analogic IN 1
Cycle Definition : Charge/Discharge alternance
Mode                Single sine
E (V)               0.0000
vs.                 Eoc
tE (h:m:s)          0:00:0.0000
record              0
dI                  1.000
unit dI             mA
dt (s)              0.000
fi                  1.000
unit fi             MHz
ff                  1.000
unit ff             Hz
Nd                  20
Points              per decade
spacing             Logarithmic
Va (mV)             128.0
pw                  0.50
Na                  3
corr                0
E range min (V)     -5.000
E range max (V)     5.000
I Range             Auto
Bandwidth           5
nc cycles           0
goto Ns'            0
nr cycles           0
inc. cycle          1

freq/Hz	Re(Z)/Ohm	-Im(Z)/Ohm	|Z|/Ohm	Phase(Z)/deg	time/s	<Ewe>/V	<I>/mA	Cs/µF	Cp/µF	cycle number	I Range	|Ewe|/V	|I|/A	(Q-Qo)/mA.h	Analog IN 1/V	Re(Y)/Ohm-1	Im(Y)/Ohm-1	|Y|/Ohm-1	Phase(Y)/deg	dq/mA.h
1.00002e+06	134.425	70.2836	151.69	-27.6027	1.64448	3.34021	-0.000129606	0.00226442	0.00048613	1	11	0.000475292	3.13331e-06	4.0743e-07	0.00162838	0.00584206	0.0030545	0.00659239	27.6027	4.0743e-07
891247	146.004	71.9891	162.787	-26.2461	2.23949	3.33971	-0.00124743	0.00248059	0.000485118	1	11	0.000188508	1.158e-06	1.45113e-07	0.0013075	0.00550966	0.0027166	0.00614298	26.2461	-2.62316e-07
794333	149.109	67.663	163.743	-24.4077	2.83548	3.33946	-0.00181604	0.00296119	0.000505641	1	11	0.0014873	9.08314e-06	-1.51971e-07	0.00146794	0.00556132	0.00252362	0.00610712	24.4077	-2.97085e-07
707950	155.439	66.8085	169.188	-23.2583	3.43048	3.33931	-0.0021682	0.00336501	0.0005247	1	11	0.00359056	2.12223e-05	-5.92724e-07	0.00186904	0.00543026	0.00233396	0.00591059	23.2583	-4.40752e-07
630957	162.16	66.1524	175.134	-22.1928	4.02649	3.33925	-0.00234139	0.00381307	0.000544033	1	11	0.00660825	3.77325e-05	-8.47587e-07	0.0017086	0.00528691	0.00215677	0.00570991	22.1928	-2.54863e-07
562342	168.602	64.7924	180.623	-21.0213	4.62249	3.33917	-0.00247544	0.00436813	0.000562077	1	11	0.0106634	5.90369e-05	-1.18995e-06	0.00162838	0.00516792	0.00198599	0.00553638	21.0213	-3.42364e-07
501206	174.646	63.581	185.859	-20.0044	5.21849	3.33914	-0.00261433	0.00499432	0.000584472	1	11	0.0157666	8.48309e-05	-1.60656e-06	0.00162838	0.0050558	0.0018406	0.00538042	20.0044	-4.16607e-07
446686	180.585	62.1895	190.994	-19.0026	5.81348	3.33914	-0.00261712	0.00572929	0.000607431	1	11	0.021914	0.000114737	-2.10404e-06	0.0017086	0.00495045	0.00170482	0.00523578	19.0026	-4.97485e-07
398103	186.009	60.7673	195.684	-18.0917	6.40949	3.33912	-0.00267696	0.00657891	0.000634432	1	11	0.0291149	0.000148786	-2.43701e-06	0.00162838	0.00485764	0.00158694	0.00511029	18.0917	-3.32965e-07
354810	191.154	58.9337	200.032	-17.1348	7.00448	3.33908	-0.00287607	0.00761133	0.000660675	1	11	0.0373974	0.000186957	-3.14266e-06	0.00146794	0.0047773	0.00147287	0.00499919	17.1348	-7.05655e-07
316230	196.007	57.1139	204.159	-16.2454	7.60049	3.33906	-0.0028701	0.00881202	0.000689642	1	11	0.0468113	0.000229289	-3.07654e-06	0.00186904	0.00470258	0.00137027	0.00489815	16.2454	6.61265e-08
281835	200.478	55.1589	207.928	-15.3835	8.19649	3.339	-0.00306902	0.0102379	0.000720469	1	11	0.0573057	0.000275603	-3.1863e-06	0.00138772	0.00463705	0.00127582	0.00480936	15.3835	-1.09763e-07
251188	204.696	53.207	211.498	-14.5706	8.79248	3.33896	-0.00312364	0.0119084	0.000753664	1	11	0.0689927	0.00032621	-3.27821e-06	0.00138772	0.00457611	0.00118948	0.00472818	14.5706	-9.19104e-08
223872	208.657	51.1811	214.842	-13.7819	9.38848	3.33899	-0.0028934	0.0138903	0.000788298	1	11	0.081819	0.000380832	-3.41167e-06	0.00162838	0.00452057	0.00110884	0.00465457	13.7819	-1.33466e-07
199544	212.333	49.283	217.977	-13.0671	9.98448	3.33892	-0.00319504	0.016184	0.000827291	1	11	0.0957273	0.000439162	-4.66678e-06	0.00122728	0.00446885	0.00103723	0.00458764	13.0671	-1.25511e-06
177832	215.809	47.3828	220.949	-12.3833	10.5795	3.33891	-0.00322021	0.0188882	0.000868651	1	11	0.110791	0.000501431	-4.70016e-06	0.0017086	0.00442063	0.000970588	0.00452592	12.3833	-3.33809e-08
158486	219.104	45.5268	223.784	-11.7382	11.0395	3.33896	-0.00301737	0.0220578	0.000912929	1	11	0.126926	0.000567181	-4.89496e-06	0.000906408	0.00437514	0.000909092	0.00446859	11.7382	-1.94803e-07
141256	222.223	43.773	226.493	-11.1433	11.6355	3.33891	-0.00323549	0.0257399	0.000961411	1	11	0.128997	0.00056954	-5.3028e-06	0.0013075	0.0043319	0.000853288	0.00441514	11.1433	-4.07836e-07
125909	225.163	42.0095	229.048	-10.5684	12.2325	3.33892	-0.0032189	0.0300895	0.00101218	1	11	0.129789	0.000566643	-5.34832e-06	0.00114707	0.00429184	0.000800746	0.0043659	10.5684	-4.55157e-08
112205	227.937	40.3522	231.481	-10.0392	12.8275	3.33902	-0.00283561	0.0351512	0.00106818	1	11	0.129744	0.000560494	-6.59684e-06	0.00154816	0.00425386	0.000753071	0.00432	10.0392	-1.24853e-06
100004	230.561	38.7221	233.79	-9.53367	13.4225	3.33895	-0.00314899	0.0411004	0.00112748	1	11	0.129735	0.000554921	-7.27183e-06	0.00146794	0.00421826	0.000708443	0.00427734	9.53367	-6.74987e-07
89129.3	233.06	37.1637	236.004	-9.06012	14.0175	3.33894	-0.0032107	0.0480485	0.00119146	1	11	0.129607	0.000549174	-8.98314e-06	0.0013075	0.00418435	0.000667238	0.00423722	9.06012	-1.71131e-06
79433.3	235.426	35.6953	238.117	-8.6215	14.6145	3.33897	-0.0032025	0.0561315	0.00126138	1	11	0.129525	0.000543957	-9.83671e-06	0.00138772	0.00415216	0.000629549	0.00419961	8.6215	-8.53565e-07
70795	237.594	34.3165	240.059	-8.21859	15.2105	3.339	-0.00305018	0.0655111	0.0013387	1	11	0.129351	0.000538828	-9.25396e-06	0.00178882	0.00412286	0.000595479	0.00416564	8.21859	5.82749e-07
63093.8	239.692	32.9843	241.951	-7.83532	15.6705	3.33897	-0.00313221	0.0764762	0.0014213	1	11	0.14061	0.000581151	-9.53322e-06	0.00122728	0.00409448	0.000563446	0.00413307	7.83532	-2.79262e-07
56237	241.669	31.7946	243.752	-7.49492	16.2665	3.339	-0.0031242	0.0890113	0.00151445	1	11	0.130414	0.000535027	-1.03559e-05	0.00162838	0.00406748	0.000535127	0.00410253	7.49492	-8.22687e-07
50122.5	243.546	30.661	245.468	-7.17545	16.7255	3.33898	-0.00312382	0.103562	0.00161578	1	11	0.139842	0.000569697	-1.07232e-05	0.00178882	0.00404194	0.000508857	0.00407385	7.17545	-3.67313e-07
44666.7	245.305	29.6287	247.088	-6.88698	17.3205	3.33899	-0.00315887	0.120261	0.0017292	1	11	0.130077	0.000526438	-1.15153e-05	0.00146794	0.00401793	0.000485297	0.00404714	6.88698	-7.92109e-07
39814.1	246.974	28.6996	248.636	-6.62833	17.7795	3.33896	-0.00322673	0.139286	0.00185581	1	11	0.137454	0.000552834	-1.24105e-05	0.0013075	0.00399507	0.000464247	0.00402195	6.62833	-8.95143e-07
35481	248.569	27.9174	250.132	-6.40818	18.3745	3.33902	-0.00308057	0.160675	0.00200153	1	11	0.129593	0.0005181	-1.39552e-05	0.00178882	0.00397292	0.000446209	0.00399789	6.40818	-1.54474e-06
31621.1	250.109	27.2061	251.585	-6.20805	18.8345	3.33899	-0.00320436	0.185002	0.00216342	1	11	0.13508	0.000536915	-1.43647e-05	0.00106685	0.00395149	0.000429831	0.0039748	6.20805	-4.09533e-07
28188.1	251.578	26.6056	252.98	-6.03689	19.2935	3.33899	-0.00317509	0.212217	0.00234722	1	11	0.139916	0.00055307	-1.48265e-05	0.00114707	0.00393095	0.000415719	0.00395287	6.03689	-4.61734e-07
25116.9	253.016	26.1599	254.364	-5.90297	19.8895	3.339	-0.00311413	0.242225	0.00256199	1	11	0.129611	0.00050955	-1.60541e-05	0.00146794	0.00391052	0.000404318	0.00393137	5.90297	-1.22759e-06
22389	254.427	25.7922	255.731	-5.7885	20.3485	3.339	-0.0031956	0.275611	0.00280353	1	11	0.132866	0.000519553	-1.69572e-05	0.00146794	0.00389042	0.000394385	0.00391036	5.7885	-9.03174e-07
19948.8	255.808	25.5331	257.079	-5.70002	20.8075	3.33899	-0.0032079	0.312464	0.00308229	1	11	0.135607	0.000527493	-1.76371e-05	0.00186904	0.00387062	0.00038634	0.00388985	5.70002	-6.7984e-07
17786.9	257.135	25.4137	258.388	-5.64445	21.2675	3.339	-0.00321984	0.352089	0.00340599	1	11	0.137866	0.000533561	-1.77238e-05	0.00154816	0.00385139	0.000380648	0.00387015	5.64445	-8.67414e-08
15847.7	258.481	25.3976	259.726	-5.61169	21.7275	3.33901	-0.00311879	0.395423	0.00378107	1	11	0.139744	0.000538043	-1.76595e-05	0.0013075	0.00383176	0.000376496	0.00385021	5.61169	6.43541e-08
14121.9	259.835	25.5113	261.085	-5.60748	22.3235	3.33901	-0.00313949	0.441769	0.00421791	1	11	0.129378	0.00049554	-1.79306e-05	0.00146794	0.00381185	0.000374257	0.00383018	5.60748	-2.71107e-07
12590.9	261.218	25.7473	262.484	-5.62924	22.7835	3.33902	-0.00322114	0.490943	0.00472376	1	11	0.130512	0.00049722	-1.87747e-05	0.00162838	0.00379138	0.000373702	0.00380976	5.62924	-8.44143e-07
11217.7	262.615	26.1107	263.91	-5.67801	23.2435	3.339	-0.0032918	0.543373	0.00531892	1	11	0.131429	0.000498007	-1.95056e-05	0.00162838	0.00377059	0.000374893	0.00378918	5.67801	-7.30874e-07
10002.2	264.054	26.5535	265.385	-5.74242	23.7035	3.33901	-0.00322431	0.599241	0.00599918	1	11	0.132146	0.000497941	-1.99773e-05	0.00178882	0.0037492	0.000377023	0.00376811	5.74242	-4.71719e-07
8914.93	265.572	27.1466	266.955	-5.83648	24.1859	3.33905	-0.00316782	0.657638	0.00680049	1	11	0.132728	0.000497192	-2.01266e-05	0.00146794	0.00372653	0.000380924	0.00374594	5.83648	-1.49329e-07
7944	267.083	27.8398	268.53	-5.95083	24.712	3.33904	-0.00313855	0.719639	0.00773503	1	11	0.133177	0.000495951	-2.0971e-05	0.0021097	0.00370391	0.000386083	0.00372398	5.95083	-8.44373e-07
7082.23	268.66	28.648	270.183	-6.08662	25.2889	3.33905	-0.00319616	0.784433	0.00881919	1	11	0.133532	0.000494227	-2.12888e-05	0.00162838	0.00368033	0.000392445	0.0037012	6.08662	-3.17746e-07
6307.73	270.384	29.5744	271.996	-6.24217	25.9236	3.33904	-0.00332405	0.85316	0.0100864	1	11	0.133818	0.000491985	-2.17661e-05	0.00146794	0.00365472	0.000399752	0.00367652	6.24217	-4.77316e-07
5621.06	272.214	30.6267	273.931	-6.41934	26.6243	3.33907	-0.00321051	0.924489	0.0115563	1	11	0.134038	0.000489313	-2.28545e-05	0.00194926	0.00362766	0.000408147	0.00365055	6.41934	-1.08842e-06
5011.6	274.138	31.7634	275.972	-6.60919	27.3847	3.33907	-0.00320474	0.999808	0.0132447	1	11	0.134201	0.000486286	-2.36742e-05	0.0017086	0.00359948	0.000417059	0.00362356	6.60919	-8.19694e-07
4466.43	276.179	32.9764	278.141	-6.80901	28.1447	3.33907	-0.00319113	1.08058	0.0151891	1	11	0.134333	0.000482966	-2.46673e-05	0.00186904	0.00356994	0.000426259	0.0035953	6.80901	-9.93134e-07
3981.27	278.386	34.2924	280.49	-7.0225	28.9047	3.33908	-0.00324538	1.16574	0.0174246	1	11	0.134428	0.000479261	-2.49922e-05	0.00194926	0.00353845	0.000435877	0.00356519	7.0225	-3.24925e-07
3546.6	280.775	35.6965	283.035	-7.24546	29.6649	3.33907	-0.00322282	1.25714	0.0199965	1	11	0.134503	0.000475215	-2.56695e-05	0.00146794	0.00350491	0.000445599	0.00353313	7.24546	-6.77226e-07
3161.01	283.315	37.1111	285.736	-7.4626	30.4247	3.33905	-0.00330988	1.35672	0.0228859	1	11	0.134558	0.000470917	-2.60963e-05	0.0013075	0.0034701	0.000454543	0.00349974	7.4626	-4.26831e-07
2817.3	286.034	38.6092	288.628	-7.68738	31.184	3.33906	-0.00328266	1.46318	0.0261819	1	11	0.134595	0.000466325	-2.67167e-05	0.00194926	0.00343352	0.000463461	0.00346466	7.68738	-6.20368e-07
2510.8	288.934	40.1223	291.706	-7.90573	31.9437	3.33906	-0.0032877	1.57987	0.0298883	1	11	0.134617	0.000461481	-2.70668e-05	0.00138772	0.00339552	0.000471513	0.0034281	7.90573	-3.50091e-07
2237.85	292.098	41.5897	295.044	-8.10346	32.7039	3.33907	-0.00323829	1.71003	0.0339782	1	11	0.134643	0.000456348	-2.78217e-05	0.00178882	0.00335548	0.000477762	0.00338932	8.10346	-7.54896e-07
1995.64	295.437	43.062	298.559	-8.29286	33.4637	3.33907	-0.00329459	1.85201	0.0385276	1	11	0.134646	0.000450985	-2.82938e-05	0.00146794	0.0033144	0.000483097	0.00334942	8.29286	-4.7216e-07
1778.29	299.008	44.4305	302.291	-8.4519	34.224	3.33908	-0.00328919	2.01435	0.0435157	1	11	0.134652	0.000445436	-2.9347e-05	0.00194926	0.00327214	0.000486216	0.00330807	8.4519	-1.05322e-06
1585.51	302.787	45.7241	306.22	-8.5874	34.9837	3.33906	-0.00340086	2.19536	0.0489475	1	11	0.134648	0.000439711	-2.99943e-05	0.00146794	0.00322902	0.000487617	0.00326563	8.5874	-6.47282e-07
1411.84	306.841	46.9088	310.406	-8.69188	35.7452	3.33907	-0.0033783	2.40315	0.0548819	1	11	0.13465	0.000433787	-3.10622e-05	0.0017086	0.00318459	0.000486848	0.00322158	8.69188	-1.06786e-06
1258.79	310.978	47.8425	314.637	-8.74611	36.5049	3.33907	-0.00328322	2.64273	0.0611028	1	11	0.134642	0.000427928	-3.18303e-05	0.00154816	0.00314131	0.000483275	0.00317827	8.74611	-7.68141e-07
1121.79	315.33	48.6659	319.063	-8.77342	37.2634	3.33907	-0.00334213	2.91529	0.0678231	1	11	0.134637	0.000421977	-3.25602e-05	0.00186904	0.0030975	0.000478047	0.00313417	8.77342	-7.29853e-07
1000.32	319.834	49.2457	323.603	-8.75324	38.2737	3.33906	-0.000134416	3.23082	0.0748211	1	12	0.135308	0.000418129	-3.34427e-05	0.00146794	0.00305421	0.000470265	0.0030902	8.75324	-8.82504e-07
891.427	324.4	49.5325	328.16	-8.68142	39.0315	3.33905	-0.000152142	3.60449	0.0821211	1	12	0.135246	0.000412136	-3.34612e-05	0.00202948	0.00301238	0.00045996	0.0030473	8.68142	-1.85487e-08
794.238	329.008	49.541	332.717	-8.56309	39.7909	3.33905	-0.00020217	4.04488	0.0896778	1	12	0.135175	0.000406278	-3.36355e-05	0.00162838	0.00297206	0.000447523	0.00300556	8.56309	-1.74308e-07
707.509	333.618	49.27	337.237	-8.40094	40.5535	3.33906	-0.000151154	4.56567	0.0974542	1	12	0.135103	0.000400618	-3.34991e-05	0.00154816	0.00293346	0.000433224	0.00296527	8.40094	1.3644e-07
631.01	338.106	48.7389	341.601	-8.20284	41.3114	3.33906	-0.000186849	5.17498	0.105347	1	12	0.135037	0.000395306	-3.34034e-05	0.00146794	0.00289744	0.000417674	0.00292739	8.20284	9.56799e-08
562.339	342.573	47.8883	345.903	-7.95783	42.0679	3.33906	-0.000154976	5.91006	0.113277	1	12	0.134978	0.00039022	-3.30838e-05	0.00178882	0.00286314	0.000400239	0.00289098	7.95783	3.19636e-07
501.444	346.836	46.8224	349.982	-7.68838	42.8252	3.33906	-0.000131099	6.77866	0.121328	1	12	0.13492	0.000385505	-3.33247e-05	0.00202948	0.0028316	0.000382263	0.00285729	7.68838	-2.40971e-07
446.859	350.923	45.5535	353.868	-7.39622	43.5819	3.33906	-0.000150167	7.81859	0.129565	1	12	0.134871	0.000381134	-3.30174e-05	0.00186904	0.0028024	0.000363781	0.00282591	7.39622	3.07358e-07
398.089	354.823	44.0873	357.552	-7.08279	44.3447	3.33906	-0.00017067	9.0683	0.137872	1	12	0.134826	0.000377081	-3.31252e-05	0.00162838	0.00277546	0.000344855	0.0027968	7.08279	-1.0781e-07
354.66	358.421	42.4881	360.93	-6.76044	45.105	3.33906	-0.000238257	10.5619	0.146362	1	12	0.13478	0.000373425	-3.29265e-05	0.00122728	0.00275135	0.000326153	0.00277062	6.76044	1.98675e-07
316.316	361.747	40.7759	364.038	-6.43119	45.8619	3.33905	-0.000182525	12.3395	0.154814	1	12	0.134744	0.000370137	-3.32953e-05	0.0017086	0.00272968	0.000307687	0.00274697	6.43119	-3.68766e-07
281.894	364.851	39.0486	366.935	-6.10889	46.6174	3.33905	-0.000184594	14.4587	0.163742	1	12	0.134716	0.000367139	-3.31262e-05	0.00114707	0.0027098	0.00029002	0.00272528	6.10889	1.6907e-07
251.044	367.691	37.301	369.578	-5.79265	47.3739	3.33905	-0.000197213	16.9961	0.173132	1	12	0.134692	0.000364449	-3.3451e-05	0.00146794	0.00269197	0.000273092	0.00270579	5.79265	-3.24815e-07
223.925	370.243	35.5573	371.947	-5.48573	48.1367	3.33906	-0.000183792	19.9889	0.182677	1	12	0.134664	0.000362051	-3.37731e-05	0.0017086	0.00267624	0.00025702	0.00268856	5.48573	-3.22116e-07
199.553	372.586	33.9193	374.127	-5.20173	48.8962	3.33906	-0.00020726	23.5134	0.193273	1	12	0.13465	0.000359906	-3.37245e-05	0.00138772	0.00266188	0.000242331	0.00267289	5.20173	4.86042e-08
177.781	374.726	32.3336	376.118	-4.93161	49.6643	3.33905	-0.000170876	27.6872	0.204616	1	12	0.134638	0.000357967	-3.35357e-05	0.00154816	0.0026489	0.000228563	0.00265874	4.93161	1.88874e-07
158.428	376.668	30.8953	377.933	-4.68906	50.4307	3.33906	-0.000199169	32.5158	0.217296	1	12	0.134621	0.000356204	-3.37423e-05	0.00194926	0.00263712	0.000216304	0.00264597	4.68906	-2.06663e-07
141.311	378.426	29.5748	379.579	-4.46871	51.1829	3.33905	-0.000178368	38.0821	0.231185	1	12	0.134609	0.000354626	-3.39229e-05	0.00194926	0.00262649	0.000205266	0.00263449	4.46871	-1.80568e-07
125.846	380.075	28.3289	381.129	-4.26266	51.9384	3.33906	-0.000225601	44.6428	0.246642	1	12	0.134602	0.000353165	-3.37145e-05	0.00186904	0.00261652	0.000195023	0.00262378	4.26266	2.0842e-07
112.19	381.597	27.291	382.572	-4.09071	52.6839	3.33906	-0.000194753	51.9812	0.264521	1	12	0.134599	0.000351828	-3.33698e-05	0.00154816	0.00260723	0.000186464	0.00261389	4.09071	3.44693e-07
100.032	383	26.3664	383.906	-3.93814	53.4437	3.33906	-0.000199562	60.3434	0.284631	1	12	0.134592	0.000350585	-3.32991e-05	0.00218992	0.00259865	0.000178896	0.0026048	3.93814	7.06537e-08
89.116	384.331	25.5591	385.18	-3.80473	54.2108	3.33905	-0.000226141	69.8745	0.307668	1	12	0.134584	0.000349404	-3.35234e-05	0.00186904	0.00259046	0.000172273	0.00259619	3.80473	-2.2423e-07
79.4155	385.63	24.9442	386.436	-3.70099	54.9752	3.33905	-0.00020931	80.3423	0.334758	1	12	0.134583	0.000348267	-3.33299e-05	0.00154816	0.00258236	0.000167038	0.00258775	3.70099	1.93459e-07
70.8387	386.856	24.4743	387.63	-3.61997	55.7264	3.33905	-0.000225788	91.7991	0.365953	1	12	0.134578	0.000347182	-3.35529e-05	0.00194926	0.00257463	0.000162883	0.00257978	3.61997	-2.23007e-07
63.0823	388.079	24.1267	388.828	-3.55747	56.5068	3.33906	-0.000237773	104.572	0.402619	1	12	0.134568	0.000346085	-3.35302e-05	0.00178882	0.00256688	0.000159581	0.00257183	3.55747	2.27306e-08
56.2418	389.264	23.9007	389.997	-3.51353	57.2513	3.33906	-0.000210056	118.4	0.444681	1	12	0.134571	0.000345057	-3.38329e-05	0.00186904	0.0025593	0.00015714	0.00256412	3.51353	-3.02715e-07
50.1444	390.435	23.8235	391.162	-3.49174	58.0082	3.33905	-0.000172087	133.227	0.494187	1	12	0.134564	0.000344012	-3.41141e-05	0.00178882	0.00255174	0.000155702	0.00255649	3.49174	-2.81214e-07
44.6712	391.643	23.8649	392.37	-3.48702	58.7722	3.33906	-0.000186757	149.291	0.552282	1	12	0.134567	0.00034296	-3.40962e-05	0.00178882	0.0025439	0.000155013	0.00254862	3.48702	1.78921e-08
39.8089	392.877	24.05	393.612	-3.50299	59.5347	3.33906	-0.000175294	166.236	0.620608	1	12	0.134563	0.000341867	-3.39781e-05	0.00202948	0.00253582	0.000155231	0.00254057	3.50299	1.18072e-07
35.4653	394.148	24.3139	394.898	-3.52994	60.2851	3.33906	-0.000201724	184.57	0.699684	1	12	0.134565	0.000340759	-3.41256e-05	0.0021097	0.0025275	0.000155914	0.0025323	3.52994	-1.47424e-07
31.6296	395.436	24.7584	396.211	-3.58264	61.0094	3.33906	-0.000177046	203.238	0.793594	1	12	0.134562	0.000339623	-3.45339e-05	0.0013075	0.00251898	0.000157714	0.00252391	3.58264	-4.08317e-07
28.1701	396.751	25.2635	397.554	-3.64345	61.8148	3.33906	-0.000153467	223.634	0.903095	1	12	0.134561	0.000338472	-3.4903e-05	0.00122728	0.0025103	0.000159846	0.00251538	3.64345	-3.69114e-07
25.1044	398.117	25.8713	398.957	-3.71809	62.5709	3.33905	-0.000225937	245.048	1.03047	1	12	0.134561	0.000337283	-3.4876e-05	0.00178882	0.00250126	0.000162543	0.00250654	3.71809	2.70461e-08
22.3854	399.522	26.6323	400.409	-3.81371	63.2564	3.33904	-0.000294399	266.961	1.18102	1	12	0.134548	0.000336027	-3.44789e-05	0.0013075	0.00249192	0.000166112	0.00249745	3.81371	3.97053e-07
19.9553	401.018	27.4529	401.957	-3.91624	64.0182	3.33906	-0.000172647	290.519	1.35516	1	12	0.134558	0.000334757	-3.40219e-05	0.0017086	0.00248202	0.000169914	0.00248783	3.91624	4.5699e-07
17.7961	402.636	28.3897	403.636	-4.03323	64.8625	3.33906	-0.000144148	315.017	1.55839	1	12	0.134556	0.00033336	-3.40067e-05	0.0021097	0.00247135	0.000174254	0.00247748	4.03323	1.52234e-08
15.8576	404.281	29.4424	405.352	-4.1653	65.5839	3.33906	-0.000145359	340.887	1.79842	1	12	0.134556	0.000331949	-3.56797e-05	0.0013075	0.00246048	0.000179188	0.00246699	4.1653	-1.67298e-06
14.119	406.044	30.5694	407.193	-4.30543	66.3863	3.33906	-0.000219339	368.749	2.07827	1	12	0.134555	0.000330444	-3.48559e-05	0.00146794	0.0024489	0.000184368	0.00245584	4.30543	8.23725e-07
12.6008	407.877	31.8518	409.119	-4.46526	67.2768	3.33906	-0.000192992	396.541	2.40357	1	12	0.134557	0.000328894	-3.40092e-05	0.00186904	0.00243686	0.000190299	0.00244428	4.46526	8.46707e-07
11.2249	409.84	33.2177	411.184	-4.63372	67.9609	3.33905	-0.00012918	426.844	2.78572	1	12	0.134556	0.000327241	-3.59114e-05	0.00218992	0.00242405	0.000196471	0.002432	4.63372	-1.90221e-06
10.0032	411.855	34.6393	413.309	-4.80758	68.7217	3.33906	-0.000175816	459.317	3.22627	1	12	0.134558	0.000325563	-3.56799e-05	0.0017086	0.00241099	0.000202777	0.0024195	4.80758	2.31523e-07
8.91838	413.991	36.2027	415.571	-4.99769	69.566	3.33905	-0.000210429	492.939	3.74097	1	12	0.134554	0.00032378	-3.47625e-05	0.00202948	0.00239718	0.000209628	0.00240633	4.99769	9.17468e-07
7.93953	416.313	37.8836	418.033	-5.19948	70.5047	3.33906	-0.000159022	529.144	4.34566	1	12	0.134555	0.000321877	-3.56136e-05	0.00178882	0.00238231	0.000216786	0.00239216	5.19948	-8.51166e-07
7.07654	418.663	39.7037	420.541	-5.41742	71.063	3.33903	-0.000281389	566.459	5.04909	1	12	0.134556	0.000319958	-3.51864e-05	0.00178882	0.00236727	0.000224499	0.00237789	5.41742	4.27259e-07
6.31058	421.196	41.4128	423.227	-5.61539	71.6832	3.33901	-5.92641e-05	608.998	5.83095	1	12	0.134544	0.000317901	-3.38079e-05	0.00122728	0.00235146	0.0002312	0.0023628	5.61539	1.37844e-06
5.6205	423.839	43.3329	426.049	-5.83758	72.3696	3.33904	0.000158779	653.472	6.75997	1	12	0.134551	0.000315811	-3.27666e-05	0.00186904	0.00233498	0.000238726	0.00234715	5.83758	1.04129e-06
5.01444	426.449	45.4048	428.859	-6.07749	73.1272	3.33906	0.000450522	699.029	7.83555	1	12	0.134556	0.000313753	-3.45097e-05	0.00162838	0.00231866	0.000246872	0.00233177	6.07749	-1.74305e-06
4.46939	429.484	47.7731	432.133	-6.34713	73.9685	3.33906	9.21806e-05	745.398	9.11004	1	12	0.134549	0.00031136	-3.85389e-05	0.00138772	0.00229992	0.000255829	0.0023141	6.34713	-4.02917e-06
3.97785	432.598	49.944	435.471	-6.58572	74.9052	3.33906	-0.000346581	801.103	10.5375	1	12	0.134558	0.000308994	-3.67066e-05	0.00194926	0.00228121	0.000263369	0.00229636	6.58572	1.8323e-06
3.55114	435.832	52.4684	438.979	-6.86462	75.9464	3.33906	-0.000245359	854.191	12.2029	1	12	0.134548	0.000306503	-3.15293e-05	0.00162838	0.00226168	0.000272277	0.00227801	6.86462	5.17723e-06
3.1604	439.195	54.9218	442.616	-7.12789	77.1082	3.33906	0.000107511	916.925	14.1179	1	12	0.134553	0.000303996	-3.74815e-05	0.00194926	0.00224183	0.000280344	0.0022593	7.12789	-5.95219e-06
2.81836	442.934	57.5566	446.658	-7.40375	78.4036	3.33906	-0.000278276	981.135	16.2918	1	12	0.134553	0.000301244	-3.81774e-05	0.00186904	0.00222018	0.000288499	0.00223885	7.40375	-6.959e-07
2.51367	446.629	60.4133	450.696	-7.70336	79.8477	3.33906	-0.000254175	1048.04	18.8311	1	12	0.13455	0.000298539	-3.03296e-05	0.0017086	0.00219876	0.000297416	0.00221879	7.70336	7.84777e-06
2.23982	450.491	63.2254	454.906	-7.98915	81.4624	3.33906	6.18396e-05	1123.87	21.7097	1	12	0.134549	0.000295773	-4.08909e-05	0.00162838	0.00217692	0.000305526	0.00219825	7.98915	-1.05613e-05
1.99706	454.718	66.1742	459.508	-8.28002	83.2657	3.33906	-0.000361241	1204.32	24.9765	1	12	0.134549	0.000292812	-3.36011e-05	0.00178882	0.00215356	0.000313403	0.00217624	8.28002	7.28985e-06
1.77961	459.179	69.4104	464.395	-8.59587	85.2829	3.33907	-0.00011704	1288.46	28.7835	1	12	0.134554	0.000289741	-3.41552e-05	0.00162838	0.00212915	0.000321846	0.00215334	8.59587	-5.54115e-07
1.58469	463.759	72.839	469.444	-8.92608	87.5421	3.33906	-0.000116939	1378.84	33.195	1	12	0.134551	0.000286617	-4.1809e-05	0.00178882	0.00210438	0.000330519	0.00213018	8.92608	-7.65386e-06
1.41224	468.499	76.3076	474.672	-9.25092	90.0712	3.33907	-0.000304216	1476.88	38.1673	1	12	0.134551	0.000283461	-2.75351e-05	0.00162838	0.00207932	0.000338672	0.00210672	9.25092	1.42739e-05
1.25967	473.437	79.8888	480.13	-9.57798	92.9	3.33906	5.53468e-06	1581.53	43.7854	1	12	0.134551	0.000280239	-4.64391e-05	0.00154816	0.00205373	0.000346551	0.00208277	9.57798	-1.8904e-05
1.12249	478.721	83.6228	485.969	-9.90844	96.068	3.33906	-0.00041192	1695.57	50.2049	1	12	0.13455	0.000276869	-2.63672e-05	0.00154816	0.00202705	0.000354084	0.00205774	9.90844	2.00719e-05
1.00006	484.337	87.5455	492.185	-10.2458	99.6162	3.33906	-3.13163e-06	1817.85	57.5135	1	12	0.134548	0.00027337	-4.56108e-05	0.00162838	0.00199936	0.000361391	0.00203176	10.2458	-1.92436e-05