File: utils/DE_206_11_30.mpt
EC-Lab ASCII FILE
Nb header lines : 60

Potentio Electrochemical Impedance Spectroscopy

Run on channel : 11 (SN 41750)
User :
CE vs. WE compliance from -10 V to 10 V
Electrode connection : standard
Ewe ctrl range : min = -5.00 V, max = 5.00 V
Acquisition started on : 12/03/2020 16:52:56
Technique started on : 12/03/2020 16:52:57
Saved on :
	File : DE_206_11_30.mpr
	Directory : P:\Chemistry\Data\VMP3\Kyler\DOE\DE_206\
	Host : 10.0.4.64
Device : VMP3 (SN 1432)
Address : USB
EC-Lab for windows v11.33 (software)
Internet server v11.32 (firmware)
Command interpretor v11.33 (firmware)
Electrode material :
Initial state :
Electrolyte :
Comments :
Electrode surface area : 0.001 cm²
Characteristic mass : 0.001 g
Equivalent Weight : 0.000 g/eq.
Density : 0.000 g/cm3
Record Analogic IN 1
Cycle Definition : Charge/Discharge alternance
Mode                Single sine
E (V)               0.0000
vs.                 Eoc
tE (h:m:s)          0:00:0.0000
record              0
dI                  1.000
unit dI             mA
dt (s)              0.000
fi                  1.000
unit fi             MHz
ff                  1.000
unit ff             Hz
Nd                  20
Points              per decade
spacing             Logarithmic
Va (mV)             128.0
pw                  0.50
Na                  3
corr                0
E range min (V)     -5.000
E range max (V)     5.000
I Range             Auto
Bandwidth           5
nc cycles           0
goto Ns'            0
nr cycles           0
inc. cycle          1

freq/Hz	Re(Z)/Ohm	-Im(Z)/Ohm	|Z|/Ohm	Phase(Z)/deg	time/s	<Ewe>/V	<I>/mA	Cs/µF	Cp/µF	cycle number	I Range	|Ewe|/V	|I|/A	(Q-Qo)/mA.h	Analog IN 1/V	Re(Y)/Ohm-1	Im(Y)/Ohm-1	|Y|/Ohm-1	Phase(Y)/deg	dq/mA.h
1.00002e+06	82.9698	34.6845	89.9277	-22.6868	1.64548	3.3077	0.00215457	0.00458856	0.000682591	1	11	0.000492373	5.47521e-06	7.45936e-07	0.000781304	0.0102597	0.00428892	0.01112	22.6868	7.45936e-07
891247	82.0147	31.6398	87.9062	-21.0957	2.24149	3.30703	-0.000110427	0.00564402	0.000731169	1	11	0.000166416	1.89312e-06	7.92557e-07	0.00110181	0.0106134	0.00409445	0.0113758	21.0957	4.66204e-08
794333	88.582	30.94	93.8299	-19.2534	2.83748	3.30664	-0.00115159	0.00647585	0.000704135	1	11	0.000574596	6.1238e-06	6.25541e-07	0.000380673	0.0100615	0.00351429	0.0106576	19.2534	-1.67015e-07
707950	91.8742	29.5786	96.5182	-17.8458	3.43247	3.30642	-0.0015335	0.00760047	0.0007138	1	11	0.00188065	1.94849e-05	3.28091e-07	0.000220421	0.00986223	0.00317511	0.0103607	17.8458	-2.97451e-07
630957	95.0019	28.455	99.1718	-16.674	4.0295	3.30628	-0.00178233	0.00886466	0.000729798	1	11	0.00388439	3.91683e-05	7.21437e-08	0.00086143	0.00965953	0.00289323	0.0100835	16.674	-2.55947e-07
562342	97.7955	27.719	101.648	-15.8248	4.62548	3.30619	-0.00191914	0.0102104	0.000759277	1	11	0.0066836	6.57525e-05	-3.50534e-07	0.000701178	0.00946503	0.00268275	0.00983788	15.8248	-4.22678e-07
501206	100.497	27.0134	104.064	-15.0455	5.22249	3.30615	-0.00192585	0.011755	0.000792107	1	11	0.0103664	9.96156e-05	-6.13071e-07	6.01684e-05	0.00928007	0.00249448	0.00960948	15.0455	-2.62537e-07
446686	103.018	26.2432	106.309	-14.2917	5.81747	3.3061	-0.00206322	0.0135769	0.000827367	1	11	0.014945	0.000140581	-9.32029e-07	0.000621051	0.00911546	0.0023221	0.00940658	14.2917	-3.18958e-07
398103	105.292	25.4823	108.331	-13.6049	6.41349	3.30608	-0.00196406	0.0156887	0.000868071	1	11	0.0204491	0.000188764	-1.54408e-06	0.000621051	0.00897194	0.00217136	0.00923095	13.6049	-6.1205e-07
354810	107.404	24.562	110.177	-12.8813	7.00948	3.30605	-0.00207029	0.0182625	0.000907629	1	11	0.026909	0.000244235	-2.16035e-06	0.000701178	0.00884791	0.00202341	0.00907633	12.8813	-6.16276e-07
316230	109.324	23.6735	111.857	-12.2185	7.60449	3.30601	-0.00215063	0.0212595	0.00095225	1	11	0.0343943	0.000307483	-3.07444e-06	0.00126206	0.00873744	0.00189205	0.00893995	12.2185	-9.14087e-07
281835	111.159	22.8295	113.479	-11.6058	8.20048	3.30595	-0.00220673	0.024736	0.00100113	1	11	0.0428911	0.000377964	-3.81561e-06	0.000621051	0.00863202	0.00177282	0.00881219	11.6058	-7.4117e-07
251188	112.81	21.9106	114.918	-10.9914	8.79649	3.30589	-0.00239032	0.028918	0.00105123	1	11	0.0524739	0.000456619	-3.43361e-06	0.00102168	0.0085422	0.00165911	0.00870183	10.9914	3.81999e-07
223872	114.392	21.036	116.311	-10.4199	9.39247	3.30594	-0.00184457	0.0337954	0.00110547	1	11	0.0631153	0.000542645	-3.59018e-06	0.000941556	0.00845589	0.00155498	0.00859768	10.4199	-1.56569e-07
199544	115.824	20.2183	117.575	-9.90179	9.98848	3.30588	-0.00214503	0.0394493	0.00116652	1	11	0.0747881	0.000636086	-3.36959e-06	0.000701178	0.00837848	0.00146255	0.00850517	9.90179	2.20595e-07
177832	117.192	19.3927	118.785	-9.39608	10.5835	3.30586	-0.00220877	0.04615	0.00123005	1	11	0.0874941	0.000736573	-2.25426e-06	0.00086143	0.00830559	0.0013744	0.00841854	9.39608	1.11533e-06
158486	118.481	18.6099	119.934	-8.92656	11.1785	3.30583	-0.00234222	0.0539616	0.00129924	1	11	0.101152	0.000843398	-3.53971e-06	0.000540925	0.00823695	0.00129378	0.00833794	8.92656	-1.28545e-06
141256	119.684	17.8602	121.01	-8.48746	11.6375	3.30587	-0.00203319	0.0630852	0.00137423	1	11	0.1158	0.000956951	-4.39988e-06	0.000460799	0.0081733	0.00121968	0.0082638	8.48746	-8.60172e-07
125909	120.834	17.1401	122.043	-8.07347	12.0975	3.30585	-0.00212508	0.0737479	0.00145461	1	11	0.13156	0.00107798	-3.89649e-06	0.000540925	0.00811261	0.00115076	0.00819382	8.07347	5.03387e-07
112205	121.935	16.4505	123.04	-7.68353	12.6935	3.30586	-0.0020686	0.086224	0.00154134	1	11	0.129844	0.0010553	-2.2156e-06	0.000380673	0.0080545	0.00108665	0.00812747	7.68353	1.68089e-06
100004	122.967	15.8092	123.979	-7.32603	13.2885	3.30591	-0.00184586	0.100669	0.00163689	1	11	0.129702	0.00104616	-2.2346e-06	0.000460799	0.00800005	0.00102852	0.00806589	7.32603	-1.90055e-08
89129.3	123.944	15.1952	124.872	-6.98945	13.8845	3.3059	-0.00202163	0.117515	0.00174011	1	11	0.12967	0.00103843	-2.03474e-06	0.000540925	0.00794869	0.000974491	0.0080082	6.98945	1.99863e-07
79433.3	124.87	14.6193	125.723	-6.67759	14.4795	3.30592	-0.00200598	0.137054	0.00185318	1	11	0.129689	0.00103155	-3.4143e-06	0.00102168	0.00790005	0.000924911	0.00795401	6.67759	-1.37956e-06
70795	125.746	14.0831	126.532	-6.39031	15.0745	3.30596	-0.00171092	0.159632	0.0019775	1	11	0.129551	0.00102386	-3.11572e-06	0.000540925	0.00785403	0.000879626	0.00790314	6.39031	2.98574e-07
63093.8	126.574	13.5897	127.301	-6.12813	15.6705	3.30597	-0.00168129	0.185619	0.00211533	1	11	0.129474	0.00101707	-2.89862e-06	0.000140295	0.00781049	0.000838579	0.00785538	6.12813	2.17101e-07
56237	127.365	13.1448	128.041	-5.8924	16.2665	3.30597	-0.0018125	0.2153	0.00226909	1	11	0.129328	0.00101005	-1.34753e-06	0.000460799	0.00776872	0.000801777	0.00780999	5.8924	1.5511e-06
50122.5	128.102	12.7271	128.732	-5.6738	16.7255	3.30598	-0.00169172	0.249493	0.0024386	1	11	0.140602	0.0010922	-2.05006e-06	0.00086143	0.00772999	0.000767986	0.00776805	5.6738	-7.02536e-07
44666.7	128.805	12.37	129.398	-5.48564	17.3205	3.306	-0.00172341	0.28805	0.00263239	1	11	0.130385	0.00100763	-1.01832e-06	0.000701178	0.0076927	0.000738778	0.0077281	5.48564	1.03175e-06
39814.1	129.486	12.0578	130.046	-5.32007	17.7805	3.30604	-0.00139275	0.331524	0.00285007	1	11	0.13984	0.00107531	-1.69255e-06	0.00086143	0.00765644	0.000712972	0.00768957	5.32007	-6.74228e-07
35481	130.131	11.7961	130.664	-5.1796	18.3755	3.30604	-0.00146359	0.380264	0.0030992	1	11	0.130038	0.000995209	-3.69412e-06	0.000781304	0.00762195	0.000690916	0.0076532	5.1796	-2.00158e-06
31621.1	130.752	11.5861	131.264	-5.06382	18.8345	3.30602	-0.00171801	0.434417	0.00338444	1	11	0.13753	0.00104774	-3.11133e-06	0.000140295	0.00758851	0.000672426	0.00761824	5.06382	5.82794e-07
28188.1	131.361	11.4366	131.858	-4.97574	19.4295	3.30602	-0.00166582	0.493695	0.00371395	1	11	0.129664	0.000983361	-2.07712e-06	0.000540925	0.00755533	0.000657782	0.00758391	4.97574	1.0342e-06
25116.9	131.951	11.3332	132.437	-4.90905	19.8895	3.30603	-0.00159909	0.559114	0.00409437	1	11	0.135308	0.00102167	-1.66171e-06	0.000941556	0.00752305	0.00064615	0.00755074	4.90905	4.1541e-07
22389	132.524	11.2935	133.004	-4.87088	20.3485	3.30603	-0.00163208	0.629444	0.00453817	1	11	0.140303	0.00105488	-1.9242e-06	0.000300547	0.0074914	0.000638404	0.00751855	4.87088	-2.62483e-07
19948.8	133.107	11.3011	133.586	-4.85292	20.9445	3.30604	-0.00167905	0.705964	0.00505249	1	11	0.129707	0.000970966	-4.02742e-06	0.000540925	0.007459	0.000633288	0.00748584	4.85292	-2.10322e-06
17786.9	133.679	11.3754	134.162	-4.86385	21.4045	3.30605	-0.00165594	0.786599	0.0056549	1	11	0.133042	0.000991647	-4.53076e-06	0.000380673	0.00742681	0.000631982	0.00745365	4.86385	-5.03343e-07
15847.7	134.259	11.5119	134.752	-4.90079	21.8635	3.30604	-0.00171856	0.87238	0.00636698	1	11	0.135882	0.00100839	-5.02738e-06	0.000540925	0.00739392	0.000633985	0.00742105	4.90079	-4.96618e-07
14121.9	134.866	11.7017	135.373	-4.95888	22.3235	3.30604	-0.00172676	0.963115	0.00719641	1	11	0.138256	0.0010213	-4.99411e-06	0.000300547	0.00735937	0.00063854	0.00738702	4.95888	3.32699e-08
12590.9	135.462	11.96	135.989	-5.04559	22.7835	3.30604	-0.00162369	1.05689	0.00817495	1	11	0.140181	0.00103082	-5.75624e-06	0.000460799	0.00732502	0.00064673	0.00735352	5.04559	-7.62137e-07
11217.7	136.117	12.2734	136.67	-5.15228	23.3795	3.30605	-0.00173273	1.15599	0.00932256	1	11	0.129338	0.000946357	-7.09405e-06	0.00102168	0.00728735	0.000657082	0.00731692	5.15228	-1.3378e-06
10002.2	136.776	12.6488	137.359	-5.2836	23.8385	3.30605	-0.00172658	1.25798	0.0106674	1	11	0.130487	0.000949972	-6.72963e-06	0.000701178	0.00724925	0.0006704	0.00728018	5.2836	3.64415e-07
8914.93	137.48	13.0817	138.101	-5.43554	24.3209	3.30608	-0.00151503	1.3647	0.0122455	1	11	0.131426	0.000951666	-7.26362e-06	0.000701178	0.00720854	0.000685919	0.0072411	5.43554	-5.33984e-07
7944	138.213	13.5773	138.878	-5.61042	24.847	3.30609	-0.00155454	1.4756	0.0141035	1	11	0.13216	0.000951625	-6.61621e-06	0.00118193	0.00716607	0.000703956	0.00720057	5.61042	6.47406e-07
7082.23	139.015	14.1407	139.732	-5.80817	25.4239	3.30608	-0.00155752	1.5892	0.0162752	1	11	0.132736	0.000949931	-6.15539e-06	0.00086143	0.0071198	0.000724229	0.00715654	5.80817	4.60827e-07
6307.73	139.869	14.7589	140.646	-6.02352	26.0586	3.30609	-0.00166656	1.70959	0.0188255	1	11	0.133201	0.000947067	-6.64723e-06	0.00110181	0.0070708	0.000746106	0.00711006	6.02352	-4.91843e-07
5621.06	140.798	15.416	141.64	-6.24843	26.7593	3.30612	-0.00140562	1.83667	0.0217573	1	11	0.133551	0.00094289	-6.30062e-06	0.00086143	0.00701823	0.000768427	0.00706017	6.24843	3.46604e-07
5011.6	141.792	16.1236	142.706	-6.4874	27.5197	3.30613	-0.00140021	1.96962	0.0251432	1	11	0.133816	0.000937703	-6.6043e-06	0.000621051	0.00696254	0.00079173	0.00700741	6.4874	-3.03674e-07
4466.43	142.873	16.8841	143.867	-6.73969	28.2787	3.30611	-0.00148204	2.11048	0.0290678	1	11	0.134026	0.000931594	-7.61407e-06	0.00086143	0.00690281	0.000815742	0.00695084	6.73969	-1.00977e-06
3981.27	144.037	17.6793	145.118	-6.99755	29.0377	3.30614	-0.0013525	2.26117	0.0335599	1	11	0.134176	0.000924602	-7.31929e-06	0.000781304	0.00683961	0.000839503	0.00689094	6.99755	2.94781e-07
3546.6	145.312	18.5013	146.485	-7.25593	29.7979	3.30613	-0.00139033	2.42552	0.0386922	1	11	0.134285	0.000916711	-7.19324e-06	0.00110181	0.00677195	0.000862213	0.00682662	7.25593	1.26051e-07
3161.01	146.685	19.34	147.954	-7.51097	30.5577	3.30614	-0.00133572	2.60338	0.0444832	1	11	0.134367	0.00090817	-6.88797e-06	0.000540925	0.00670086	0.000883491	0.00675886	7.51097	3.05265e-07
2817.3	148.148	20.2014	149.519	-7.76494	31.3179	3.30614	-0.00135846	2.79645	0.0510479	1	11	0.134411	0.000898956	-6.57566e-06	0.00086143	0.00662681	0.000903629	0.00668813	7.76494	3.12317e-07
2510.8	149.755	21.0198	151.223	-7.98992	32.0777	3.30614	-0.00135101	3.01563	0.0582641	1	11	0.134448	0.000889071	-7.13727e-06	0.00118193	0.00654856	0.000919165	0.00661275	7.98992	-5.61613e-07
2237.85	151.444	21.847	153.012	-8.20875	32.8379	3.30613	-0.00138642	3.25534	0.066364	1	11	0.13446	0.000878758	-8.17457e-06	0.000220421	0.00646849	0.000933133	0.00653545	8.20875	-1.0373e-06
1995.64	153.25	22.6135	154.91	-8.39392	33.5977	3.30614	-0.00135306	3.52672	0.0751531	1	11	0.134466	0.000868025	-7.89888e-06	0.000781304	0.00638621	0.000942342	0.00645536	8.39392	2.75692e-07
1778.29	155.18	23.351	156.927	-8.5575	34.3579	3.30614	-0.00141065	3.83276	0.0848648	1	11	0.134465	0.000856862	-8.05682e-06	0.00086143	0.00630145	0.000948223	0.00637239	8.5575	-1.57944e-07
1585.51	157.192	24.0095	159.015	-8.68424	35.1177	3.30614	-0.00133516	4.18088	0.0953144	1	11	0.134454	0.000845542	-9.09854e-06	0.000941556	0.00621661	0.000949525	0.00628871	8.68424	-1.04172e-06
1411.84	159.316	24.5968	161.203	-8.77662	35.8792	3.30613	-0.00143134	4.58307	0.106701	1	11	0.134442	0.000833993	-9.2263e-06	0.000941556	0.00613071	0.000946523	0.00620335	8.77662	-1.27765e-07
1258.79	161.493	25.0619	163.426	-8.82128	36.6389	3.30613	-0.00149322	5.0449	0.118641	1	11	0.134424	0.000822534	-1.01767e-05	0.000621051	0.00604659	0.000938361	0.00611896	8.82128	-9.50369e-07
1121.79	163.729	25.4478	165.695	-8.83457	37.3975	3.30613	-0.00143712	5.57514	0.131503	1	11	0.134409	0.000811184	-9.9239e-06	0.000941556	0.00596357	0.000926895	0.00603517	8.83457	2.52771e-07
1000.32	166.027	25.7052	168.005	-8.80096	38.1567	3.30613	-0.00151652	6.18956	0.144896	1	11	0.134399	0.000799967	-1.01534e-05	0.000220421	0.00588211	0.000910699	0.00595219	8.80096	-2.29481e-07
891.427	168.311	25.8405	170.283	-8.7284	38.9155	3.30614	-0.00143973	6.90929	0.159109	1	11	0.134369	0.000789095	-1.03481e-05	0.000781304	0.00580458	0.00089117	0.00587259	8.7284	-1.94721e-07
794.238	170.615	25.8562	172.563	-8.61742	39.6749	3.30614	-0.00143544	7.75006	0.173995	1	11	0.134352	0.000778567	-1.03837e-05	0.000621051	0.00572956	0.000868296	0.00579498	8.61742	-3.55715e-08
707.509	172.879	25.7759	174.79	-8.4802	40.4375	3.30614	-0.00146993	8.72718	0.189788	1	11	0.134339	0.000768575	-1.09688e-05	0.000300547	0.0056586	0.000843684	0.00572115	8.4802	-5.8509e-07
631.01	175.096	25.5811	176.955	-8.31194	41.1954	3.30614	-0.00143861	9.85974	0.206052	1	11	0.134327	0.000759101	-1.14238e-05	0.000781304	0.00559179	0.000816944	0.00565115	8.31194	-4.5504e-07
562.339	177.246	25.3132	179.044	-8.12768	41.9519	3.30614	-0.00149583	11.1809	0.223485	1	11	0.134307	0.000750136	-1.24034e-05	0.000701178	0.00552912	0.000789636	0.00558522	8.12768	-9.79548e-07
501.444	179.315	24.9604	181.044	-7.92455	42.7092	3.30614	-0.0015072	12.7159	0.241701	1	11	0.134299	0.000741803	-1.2267e-05	0.000781304	0.00547076	0.00076152	0.00552351	7.92455	1.36348e-07
446.859	181.317	24.5631	182.974	-7.71489	43.4649	3.30614	-0.00153479	14.5	0.26131	1	11	0.134286	0.000733907	-1.30907e-05	0.00102168	0.0054158	0.000733678	0.00546527	7.71489	-8.23692e-07
398.089	183.236	24.1237	184.817	-7.50008	44.2277	3.30614	-0.00151336	16.5728	0.282358	1	11	0.134284	0.000726581	-1.36488e-05	0.000621051	0.00536447	0.000706254	0.00541076	7.50008	-5.58105e-07
354.66	185.067	23.6661	186.574	-7.28735	44.988	3.30614	-0.00152845	18.9619	0.305094	1	11	0.134275	0.00071969	-1.35013e-05	0.000621051	0.00531652	0.000679869	0.00535981	7.28735	1.47459e-07
316.316	186.806	23.2169	188.243	-7.08459	45.7439	3.30614	-0.00155846	21.6718	0.329659	1	11	0.134269	0.000713275	-1.43499e-05	0.000941556	0.00527172	0.000655188	0.00531228	7.08459	-8.48584e-07
281.894	188.46	22.7932	189.833	-6.89611	46.4994	3.30614	-0.00153833	24.7702	0.357103	1	11	0.134259	0.000707249	-1.52434e-05	0.000460799	0.00522967	0.000632499	0.00526778	6.89611	-8.93432e-07
251.044	190.069	22.3568	191.379	-6.70857	47.2559	3.30614	-0.00153032	28.357	0.386982	1	11	0.134252	0.000701496	-1.60576e-05	0.000380673	0.00518946	0.000610409	0.00522524	6.70857	-8.14229e-07
223.925	191.59	21.9694	192.846	-6.54146	48.0187	3.30612	-0.00158362	32.3519	0.419871	1	11	0.134253	0.000696169	-1.67457e-05	0.000621051	0.00515174	0.000590743	0.0051855	6.54146	-6.88076e-07
199.553	193.089	21.6243	194.296	-6.39003	48.7782	3.30613	-0.00158456	36.8824	0.456855	1	11	0.134245	0.000690933	-1.64181e-05	0.00102168	0.00511482	0.000572818	0.0051468	6.39003	3.27525e-07
177.781	194.558	21.3164	195.722	-6.25257	49.5463	3.30613	-0.00158437	41.9973	0.49816	1	11	0.134254	0.000685945	-1.73551e-05	0.000621051	0.0050789	0.000556461	0.00510929	6.25257	-9.36913e-07
158.428	195.972	21.0426	197.098	-6.12868	50.3127	3.30613	-0.00157841	47.7407	0.544152	1	11	0.134243	0.000681095	-1.72498e-05	0.000300547	0.00504462	0.000541668	0.00507361	6.12868	1.05268e-07
141.311	197.333	20.8118	198.427	-6.02047	51.0649	3.30612	-0.00155958	54.1169	0.595319	1	11	0.134241	0.000676526	-1.79515e-05	0.00110181	0.00501183	0.000528575	0.00503963	6.02047	-7.01734e-07
125.846	198.722	20.6074	199.788	-5.92039	51.8204	3.30613	-0.00153722	61.3702	0.652931	1	11	0.134235	0.000671886	-1.80108e-05	0.000701178	0.00497861	0.00051628	0.00500531	5.92039	-5.92593e-08
112.19	200.062	20.4496	201.105	-5.83627	52.5658	3.30614	-0.00155138	69.3717	0.717308	1	11	0.134234	0.000667485	-1.81835e-05	0.00110181	0.00494676	0.000505638	0.00497254	5.83627	-1.7276e-07
100.032	201.39	20.3343	202.414	-5.76561	53.3257	3.30612	-0.00161494	78.2441	0.789643	1	11	0.134233	0.000663161	-1.89139e-05	0.000540925	0.00491539	0.000496306	0.00494038	5.76561	-7.3032e-07
89.116	202.704	20.2381	203.712	-5.70153	54.0918	3.30613	-0.00160655	88.2461	0.870962	1	11	0.13423	0.000658918	-1.93618e-05	0.00102168	0.0048846	0.00048768	0.00490889	5.70153	-4.47931e-07
79.4155	203.998	20.1946	204.995	-5.65351	54.8552	3.30613	-0.0015594	99.2385	0.963077	1	11	0.134235	0.00065482	-1.97651e-05	0.00086143	0.00485443	0.000480558	0.00487816	5.65351	-4.03339e-07
70.8387	205.289	20.1995	206.28	-5.61957	55.6064	3.30613	-0.00155026	111.226	1.06654	1	11	0.134232	0.000650728	-1.98404e-05	0.00086143	0.00482448	0.000474708	0.00484778	5.61957	-7.5308e-08
63.0823	206.569	20.2136	207.556	-5.58882	56.3868	3.30613	-0.00159667	124.816	1.18382	1	11	0.134229	0.000646712	-2.04224e-05	0.000781304	0.00479508	0.000469217	0.00481798	5.58882	-5.81958e-07
56.2418	207.812	20.3132	208.802	-5.58282	57.1303	3.30613	-0.00153312	139.31	1.31847	1	11	0.134228	0.000642845	-2.01562e-05	0.000781304	0.0047665	0.000465917	0.00478922	5.58282	2.66241e-07
50.1444	209.066	20.4722	210.066	-5.59268	57.8872	3.30614	-0.00156797	155.036	1.47248	1	11	0.134228	0.000638977	-2.00454e-05	0.00086143	0.00473774	0.000463929	0.0047604	5.59268	1.10705e-07
44.6712	210.315	20.6627	211.327	-5.6111	58.6512	3.30613	-0.0015827	172.427	1.64842	1	11	0.134231	0.00063518	-2.04876e-05	0.000540925	0.00470932	0.000462674	0.00473199	5.6111	-4.4211e-07
39.8089	211.576	20.9135	212.607	-5.64515	59.4137	3.30614	-0.00155958	191.167	1.84975	1	11	0.13423	0.000631352	-2.11392e-05	0.000380673	0.00468071	0.000462672	0.00470352	5.64515	-6.51653e-07
35.4653	212.857	21.2287	213.913	-5.69543	60.1641	3.30613	-0.00155567	211.394	2.08194	1	11	0.134229	0.000627497	-2.12446e-05	0.000781304	0.00465173	0.000463929	0.00467481	5.69543	-1.05345e-07
31.6296	214.11	21.6189	215.198	-5.76567	60.8885	3.30613	-0.00155138	232.752	2.34899	1	11	0.134223	0.000623716	-2.08673e-05	0.000540925	0.00462337	0.000466826	0.00464687	5.76567	3.77221e-07
28.1701	215.4	22.0908	216.53	-5.85562	61.6927	3.30612	-0.00179015	255.753	2.662	1	11	0.134225	0.000619894	-2.07619e-05	0.000781304	0.00459421	0.000471169	0.0046183	5.85562	1.05471e-07
25.1044	216.729	22.644	217.908	-5.96468	62.4489	3.30613	-0.00154915	279.973	3.02326	1	11	0.134222	0.000615954	-2.12823e-05	0.000781304	0.00456424	0.000476877	0.00458909	5.96468	-5.20398e-07
22.3854	218.073	23.2677	219.311	-6.09024	63.1354	3.30613	-0.00143564	305.564	3.43945	1	11	0.134221	0.000612013	-2.22661e-05	0.000540925	0.00453401	0.000483764	0.00455974	6.09024	-9.83806e-07
19.9553	219.432	23.9332	220.733	-6.22457	63.8962	3.30613	-0.00158512	333.244	3.91765	1	11	0.134222	0.000608072	-2.34349e-05	0.000941556	0.00450364	0.000491206	0.00453035	6.22457	-1.16888e-06
17.7961	220.867	24.7279	222.247	-6.38813	64.7405	3.3061	-0.0019059	361.666	4.47724	1	11	0.134223	0.000603935	-2.39517e-05	0.000941556	0.00447157	0.000500629	0.00449951	6.38813	-5.16784e-07
15.8576	222.333	25.6031	223.803	-6.56903	65.4629	3.30614	-0.00173144	392.005	5.13032	1	11	0.134221	0.000599728	-2.13824e-05	0.000701178	0.00443889	0.000511165	0.00446822	6.56903	2.56932e-06
14.119	223.905	26.5957	225.479	-6.77393	66.2653	3.30613	-0.00156126	423.843	5.89681	1	11	0.134225	0.000595289	-2.31763e-05	0.000220421	0.00440405	0.000523119	0.00443501	6.77393	-1.79393e-06
12.6008	225.495	27.6321	227.181	-6.98619	67.1559	3.30611	-0.00182305	457.096	6.76223	1	11	0.134225	0.000590827	-2.53206e-05	0.000540925	0.00436909	0.000535387	0.00440177	6.98619	-2.1443e-06
11.2249	227.188	28.7916	229.005	-7.2226	67.8399	3.30613	-0.00173367	492.463	7.7842	1	11	0.134224	0.000586118	-2.22464e-05	0.000941556	0.00433206	0.000549003	0.00436671	7.2226	3.0743e-06
10.0032	228.935	30.0236	230.895	-7.4714	68.5997	3.30614	-0.00156462	529.93	8.96014	1	11	0.134216	0.000581288	-2.34317e-05	0.000621051	0.0042942	0.000563162	0.00433097	7.4714	-1.18539e-06
8.91838	230.766	31.3246	232.882	-7.73018	69.444	3.30611	-0.00185138	569.704	10.3073	1	11	0.13422	0.000576343	-2.50144e-05	0.000460799	0.004255	0.000577581	0.00429402	7.73018	-1.58267e-06
7.93953	232.729	32.7549	235.023	-8.01132	70.3827	3.30612	-0.00180935	611.997	11.8872	1	11	0.134221	0.000571096	-2.46576e-05	0.00102168	0.00421337	0.000593	0.0042549	8.01132	3.5684e-07
7.07654	234.762	34.3115	237.256	-8.31516	70.941	3.30608	-0.00198604	655.48	13.709	1	11	0.134218	0.00056571	-2.57448e-05	0.000941556	0.00417055	0.000609544	0.00421486	8.31516	-1.08722e-06
6.31058	236.896	35.8245	239.59	-8.59937	71.5612	3.30611	-0.00232173	703.996	15.7396	1	11	0.134215	0.000560187	-2.84294e-05	0.00086143	0.00412688	0.000624086	0.0041738	8.59937	-2.68466e-06
5.6205	239.186	37.4976	242.107	-8.90984	72.2477	3.30613	-0.00261361	755.165	18.1148	1	11	0.134218	0.000554376	-3.047e-05	0.000701178	0.00408056	0.000639717	0.0041304	8.90984	-2.04054e-06
5.01444	241.382	39.2885	244.559	-9.24467	73.0052	3.30613	-0.00294837	807.853	20.8496	1	11	0.134221	0.000548829	-2.75621e-05	0.000460799	0.00403589	0.000656901	0.004089	9.24467	2.90788e-06
4.46939	243.979	41.3219	247.453	-9.61277	73.8465	3.3061	-0.002281	861.77	24.0306	1	11	0.134219	0.0005424	-2.13099e-05	0.000621051	0.00398442	0.000674828	0.00404117	9.61277	6.25222e-06
3.97785	246.611	43.266	250.378	-9.95083	74.7832	3.30612	-0.00152538	924.751	27.6138	1	11	0.134221	0.000536075	-2.55234e-05	0.000540925	0.00393388	0.000690168	0.00399396	9.95083	-4.2135e-06
3.55114	249.377	45.4654	253.488	-10.3324	75.8244	3.30611	-0.00181839	985.761	31.7117	1	11	0.13422	0.000529492	-3.45247e-05	0.000941556	0.00388099	0.000707565	0.00394496	10.3324	-9.00134e-06
3.1604	252.222	47.6256	256.679	-10.6929	76.9862	3.30612	-0.00246506	1057.4	36.4031	1	11	0.134221	0.000522915	-2.46502e-05	0.00086143	0.00382827	0.000722869	0.00389592	10.6929	9.87454e-06
2.81836	255.382	49.9984	260.231	-11.0772	78.2816	3.30612	-0.00169812	1129.45	41.6929	1	11	0.134217	0.000515763	-2.49332e-05	0.000540925	0.00377115	0.00073831	0.00384274	11.0772	-2.83035e-07
2.51367	258.547	52.5028	263.824	-11.4789	79.7257	3.30612	-0.00171421	1205.95	47.7601	1	11	0.134217	0.000508738	-3.85386e-05	0.00126206	0.00371459	0.000754317	0.00379041	11.4789	-1.36053e-05
2.23982	261.822	55.0671	267.55	-11.8775	81.3403	3.30612	-0.00226316	1290.37	54.6624	1	11	0.134219	0.000501661	-2.15238e-05	0.00110181	0.0036576	0.000769276	0.00373762	11.8775	1.70148e-05
1.99706	265.428	57.7115	271.63	-12.2668	83.6927	3.30614	0.000100494	1380.91	62.3357	1	12	0.134219	0.000494126	-3.20456e-05	0.000540925	0.00359743	0.000782183	0.00368148	12.2668	-1.05218e-05
1.77961	269.169	60.6558	275.918	-12.6992	85.7109	3.30613	-5.19321e-05	1474.42	71.2536	1	12	0.134222	0.000486457	-4.36451e-05	0.000701178	0.0035356	0.000796732	0.00362426	12.6992	-1.15995e-05
1.58469	273.043	63.706	280.376	-13.1332	87.9701	3.30614	-0.000282455	1576.51	81.3909	1	12	0.134223	0.000478726	-2.12113e-05	0.00110181	0.00347335	0.000810399	0.00356664	13.1332	2.24338e-05
1.41224	277.1	66.8163	285.042	-13.5568	90.4991	3.30613	0.000255127	1686.67	92.6781	1	12	0.134219	0.000470874	-4.93018e-05	0.000540925	0.00341051	0.000822366	0.00350826	13.5568	-2.80905e-05
1.25967	281.398	70.0487	289.986	-13.9786	93.328	3.30613	-0.000382895	1803.69	105.247	1	12	0.134224	0.000462862	-2.16518e-05	0.00086143	0.00334632	0.000833002	0.00344844	13.9786	2.765e-05
1.12249	285.954	73.5231	295.254	-14.4193	96.4951	3.30614	0.000232674	1928.48	119.583	1	12	0.134216	0.000454579	-4.41769e-05	0.000781304	0.00328022	0.000843396	0.00338691	14.4193	-2.25251e-05
1.00006	290.78	77.2182	300.858	-14.872	100.044	3.30614	-0.000255013	2060.97	135.765	1	12	0.134222	0.000446131	-3.05989e-05	0.000621051	0.00321248	0.000853093	0.00332383	14.872	1.3578e-05