File: utils/DE_206_14_30.mpt
EC-Lab ASCII FILE
Nb header lines : 60

Potentio Electrochemical Impedance Spectroscopy

Run on channel : 14 (SN 41308)
User :
CE vs. WE compliance from -10 V to 10 V
Electrode connection : standard
Ewe ctrl range : min = -5.00 V, max = 5.00 V
Acquisition started on : 12/03/2020 16:52:25
Technique started on : 12/03/2020 16:52:26
Saved on :
	File : DE_206_14_30.mpr
	Directory : P:\Chemistry\Data\VMP3\Kyler\DOE\DE_206\
	Host : 10.0.4.64
Device : VMP3 (SN 1432)
Address : USB
EC-Lab for windows v11.33 (software)
Internet server v11.32 (firmware)
Command interpretor v11.33 (firmware)
Electrode material :
Initial state :
Electrolyte :
Comments :
Electrode surface area : 0.001 cm²
Characteristic mass : 0.001 g
Equivalent Weight : 0.000 g/eq.
Density : 0.000 g/cm3
Record Analogic IN 1
Cycle Definition : Charge/Discharge alternance
Mode                Single sine
E (V)               0.0000
vs.                 Eoc
tE (h:m:s)          0:00:0.0000
record              0
dI                  1.000
unit dI             mA
dt (s)              0.000
fi                  1.000
unit fi             MHz
ff                  1.000
unit ff             Hz
Nd                  20
Points              per decade
spacing             Logarithmic
Va (mV)             128.0
pw                  0.50
Na                  3
corr                0
E range min (V)     -5.000
E range max (V)     5.000
I Range             Auto
Bandwidth           5
nc cycles           0
goto Ns'            0
nr cycles           0
inc. cycle          1

freq/Hz	Re(Z)/Ohm	-Im(Z)/Ohm	|Z|/Ohm	Phase(Z)/deg	time/s	<Ewe>/V	<I>/mA	Cs/µF	Cp/µF	cycle number	I Range	|Ewe|/V	|I|/A	(Q-Qo)/mA.h	Analog IN 1/V	Re(Y)/Ohm-1	Im(Y)/Ohm-1	|Y|/Ohm-1	Phase(Y)/deg	dq/mA.h
1.00002e+06	-0.979463	-2.98923	3.14561	108.142	1.8446	3.27421	-0.0563454	-0.0532417	-0.0480797	1	9	9.00386e-05	2.86236e-05	-2.79985e-06	-0.000100609	-0.098987	-0.3021	0.317903	-108.142	-2.79985e-06
891247	-1.0675	-3.56422	3.72064	106.673	2.54948	3.27373	-0.0630989	-0.0501024	-0.045978	1	9	0.000122233	3.28526e-05	-1.08147e-05	-0.000100609	-0.077114	-0.257471	0.268771	-106.673	-8.01488e-06
794333	-0.263459	-4.15626	4.1646	93.627	3.14549	3.27344	-0.0647219	-0.0482075	-0.0480146	1	9	0.000130991	3.14534e-05	-1.88906e-05	-0.000260826	-0.0151903	-0.239638	0.240119	-93.627	-8.07583e-06
707950	0.880066	-4.04237	4.13706	77.7178	3.3636	3.27332	-0.0600953	-0.0556137	-0.053097	1	9	7.97602e-05	1.92794e-05	-2.15892e-05	-0.000100609	0.0514199	-0.236185	0.241717	-77.7178	-2.69865e-06
630957	-0.389297	-4.40782	4.42498	95.0472	3.6936	3.27324	-0.0614571	-0.0572264	-0.0567835	1	9	4.65187e-05	1.05128e-05	-2.4751e-05	-0.000501151	-0.0198819	-0.225113	0.22599	-95.0472	-3.16176e-06
562342	1.572	-3.74028	4.0572	67.2035	4.3985	3.2732	-0.0577819	-0.0756686	-0.0643089	1	9	0.000278627	6.86747e-05	-3.37995e-05	-0.000180717	0.0954993	-0.227223	0.246476	-67.2035	-9.04851e-06
501206	1.70182	-3.19666	3.62144	61.9703	4.99548	3.27318	-0.051868	-0.0993361	-0.0773993	1	9	0.000609751	0.000168373	-3.96062e-05	-0.000340934	0.129763	-0.243744	0.276133	-61.9703	-5.80678e-06
446686	2.00049	-2.88885	3.51389	55.2979	5.59149	3.27317	-0.0552074	-0.123337	-0.0833617	1	9	0.00106731	0.000303739	-4.74615e-05	-0.000260826	0.162017	-0.233964	0.284585	-55.2979	-7.8553e-06
398103	2.13605	-2.50974	3.29568	49.5987	6.18648	3.27315	-0.0578565	-0.159293	-0.0923767	1	9	0.00163941	0.000497441	-5.41165e-05	-0.000340934	0.196662	-0.231067	0.303427	-49.5987	-6.65497e-06
354810	2.25479	-2.1767	3.13403	43.9905	6.78249	3.27313	-0.0553939	-0.206075	-0.0994074	1	9	0.00235454	0.000751282	-6.22003e-05	-0.000340934	0.229562	-0.221613	0.319078	-43.9905	-8.08378e-06
316230	2.33019	-1.87992	2.99398	38.8954	7.37749	3.27311	-0.0553566	-0.267718	-0.10555	1	9	0.00324381	0.00108345	-6.92821e-05	-0.000340934	0.259953	-0.209721	0.334004	-38.8954	-7.08181e-06
281835	2.38875	-1.60491	2.87782	33.8956	7.97248	3.27305	-0.058752	-0.351865	-0.109433	1	9	0.00436971	0.00151841	-8.02103e-05	-0.000180717	0.288432	-0.193786	0.347485	-33.8956	-1.09282e-05
251188	2.42813	-1.34575	2.77612	28.9967	8.56749	3.273	-0.0553193	-0.470824	-0.110639	1	9	0.00580731	0.00209188	-9.28624e-05	-0.000981802	0.315061	-0.174617	0.360215	-28.9967	-1.26521e-05
223872	2.46312	-1.11486	2.70367	24.3525	9.16349	3.27297	-0.0573155	-0.637678	-0.108426	1	9	0.00770089	0.00284831	-9.86642e-05	-0.000260826	0.336959	-0.152515	0.369867	-24.3525	-5.80182e-06
199544	2.49496	-0.899852	2.65227	19.8328	9.76048	3.27295	-0.0571662	-0.886362	-0.102028	1	9	0.0102977	0.00388259	-9.64178e-05	-2.05e-05	0.354672	-0.127919	0.377036	-19.8328	2.24646e-06
177832	2.5239	-0.706381	2.62089	15.6357	10.3555	3.27295	-0.056308	-1.26699	-0.0920349	1	9	0.0139516	0.00532322	-9.11944e-05	-0.000421043	0.367431	-0.102835	0.38155	-15.6357	5.22337e-06
158486	2.5466	-0.524696	2.60009	11.6422	10.9505	3.27295	-0.0515133	-1.91391	-0.0779398	1	9	0.0191863	0.0073791	-8.70077e-05	-0.000821585	0.376689	-0.0776123	0.384602	-11.6422	4.1867e-06
141256	2.56952	-0.353352	2.59371	7.83	11.5455	3.27295	-0.0489947	-3.18865	-0.0591806	1	9	0.0269325	0.0103838	-9.17231e-05	-0.000421043	0.381954	-0.052525	0.385549	-7.83	-4.71545e-06
125909	2.5924	-0.189955	2.59935	4.19078	12.1425	3.273	-0.0344615	-6.65446	-0.0355372	1	9	0.0404023	0.0155433	-6.75965e-05	-0.000741477	0.383683	-0.0281139	0.384712	-4.19078	2.41267e-05
112205	2.61778	-0.0339398	2.618	0.742805	12.7375	3.27318	0.0491549	-41.7925	-0.0070239	1	9	0.105014	0.0401124	-0.000129122	-0.000100609	0.381939	-0.00495188	0.381971	-0.742805	-6.15255e-05
100004	2.63805	0.123464	2.64093	-2.67957	13.6055	3.27324	0.0309654	12.8903	0.0281728	1	9	0.117472	0.0444814	-0.000251549	-2.05e-05	0.37824	0.0177022	0.378654	2.67957	-0.000122427
89129.3	2.66104	0.278964	2.67563	-5.98461	14.2015	3.27325	0.0114699	6.40105	0.0695821	1	9	0.1192	0.0445504	-0.000349479	-0.000340934	0.371707	0.0389671	0.373744	5.98461	-9.79303e-05
79433.3	2.68651	0.434048	2.72135	-9.17773	14.7985	3.27341	0.0434464	4.61615	0.117432	1	9	0.127247	0.0467589	-0.000312556	-0.00058126	0.36276	0.0586096	0.367465	9.17773	3.69231e-05
70795	2.71449	0.591363	2.77816	-12.2901	15.3935	3.27341	0.0424951	3.80157	0.172249	1	9	0.131654	0.0473888	-0.000340893	-0.000100609	0.351701	0.0766196	0.35995	12.2901	-2.83373e-05
63093.8	2.74573	0.752077	2.84687	-15.318	15.9905	3.27348	0.0427749	3.35406	0.234077	1	9	0.133971	0.047059	-0.000316532	-0.000421043	0.338784	0.0927954	0.351263	15.318	2.43613e-05
56237	2.77976	0.916195	2.92685	-18.242	16.5875	3.27342	0.0247904	3.08894	0.30268	1	9	0.134649	0.0460049	-0.000232096	-0.00058126	0.324493	0.106951	0.341664	18.242	8.4436e-05
50122.5	2.81919	1.08887	3.02216	-21.1183	17.1835	3.27347	0.0339318	2.91617	0.378554	1	9	0.1341	0.0443723	-0.000209033	-0.000501151	0.308666	0.119218	0.330889	21.1183	2.30629e-05
44666.7	2.86155	1.27013	3.13077	-23.9346	17.7795	3.27343	0.0148094	2.80535	0.461725	1	9	0.132772	0.0424087	-0.000159068	-0.000100609	0.291944	0.129583	0.319411	23.9346	4.99653e-05
39814.1	2.90968	1.45963	3.25527	-26.6405	18.2395	3.27395	-0.0113276	2.73867	0.550623	1	9	0.137157	0.042134	-0.000140809	-0.000340934	0.274582	0.137743	0.307194	26.6405	1.82586e-05
35481	2.9624	1.6627	3.39711	-29.3041	18.6985	3.27344	0.0216002	2.6978	0.646277	1	9	0.139267	0.0409958	-0.000153216	-0.000340934	0.256699	0.144077	0.294368	29.3041	-1.24073e-05
31621.1	3.0232	1.87976	3.55995	-31.8725	19.1585	3.27344	0.0193988	2.67756	0.746547	1	9	0.139532	0.0391949	-0.000140159	-0.00058126	0.23855	0.148325	0.280903	31.8725	1.30575e-05
28188.1	3.08857	2.11158	3.7414	-34.3595	19.6185	3.27348	0.0307229	2.67391	0.851716	1	9	0.138596	0.0370439	-0.000153127	-0.00058126	0.220643	0.150848	0.26728	34.3595	-1.2968e-05
25116.9	3.1633	2.36208	3.9479	-36.7493	20.0775	3.27343	0.00900731	2.68262	0.960323	1	9	0.136897	0.034676	-0.00013813	-0.000501151	0.202959	0.151553	0.253299	36.7493	1.49966e-05
22389	3.2474	2.63301	4.18071	-39.0354	20.5375	3.27346	0.0323085	2.6998	1.07087	1	9	0.134873	0.0322607	-0.000141691	-0.000100609	0.185796	0.150644	0.239194	39.0354	-3.56089e-06
19948.8	3.34236	2.92658	4.44255	-41.2055	20.9975	3.27343	0.0151449	2.72611	1.18304	1	9	0.132749	0.0298811	-0.000110402	-0.000260826	0.169351	0.148284	0.225096	41.2055	3.12889e-05
17786.9	3.45957	3.23232	4.73461	-43.055	21.6235	3.27354	-0.00806127	2.76825	1.29023	1	10	0.134376	0.0283816	-6.76636e-05	-0.000501151	0.154331	0.144193	0.211211	43.055	4.27388e-05
15847.7	3.57959	3.57829	5.06138	-44.9896	22.2185	3.27354	-0.00742538	2.80659	1.40279	1	10	0.130346	0.025753	-6.08181e-05	-0.000421043	0.139732	0.139681	0.197575	44.9896	6.84556e-06
14121.9	3.71636	3.95238	5.42519	-46.7628	22.6785	3.27355	-0.0082238	2.85147	1.51341	1	10	0.135001	0.0248842	-7.54405e-05	-0.000661368	0.126267	0.134286	0.184325	46.7628	-1.46224e-05
12590.9	3.8696	4.35643	5.82686	-48.3869	23.1385	3.27356	-0.00781531	2.90156	1.6219	1	10	0.136116	0.0233601	-6.06707e-05	-0.00114202	0.113972	0.12831	0.171619	48.3869	1.47698e-05
11217.7	4.04407	4.79843	6.2753	-49.8762	23.5985	3.27355	-0.00778176	2.95676	1.7288	1	10	0.134812	0.0214829	-5.98091e-05	-0.000340934	0.102695	0.121851	0.159355	49.8762	8.61638e-07
10002.2	4.23945	5.27476	6.76727	-51.2103	24.0585	3.27355	-0.00872935	3.01662	1.83273	1	10	0.132194	0.0195343	-4.2322e-05	-0.000260826	0.0925725	0.115179	0.14777	51.2103	1.74871e-05
8914.93	4.46122	5.7932	7.31188	-52.4009	24.5409	3.27356	-0.00487947	3.08165	1.93447	1	10	0.129103	0.0176566	-4.05256e-05	-0.00058126	0.083444	0.108358	0.136764	52.4009	1.79639e-06
7944	4.71233	6.3561	7.9124	-53.4472	25.067	3.27356	-0.00207045	3.15203	2.03402	1	10	0.126004	0.0159248	-4.13347e-05	-0.000340934	0.0752695	0.101525	0.126384	53.4472	-8.0913e-07
7082.23	4.99507	6.96185	8.56844	-54.3409	25.6439	3.27357	0.000143612	3.22794	2.13094	1	10	0.123178	0.0143758	-2.75561e-05	-0.000421043	0.0680359	0.0948247	0.116707	54.3409	1.37787e-05
6307.73	5.31769	7.6219	9.29361	-55.0971	26.2786	3.27357	0.00242475	3.31042	2.22659	1	10	0.120694	0.0129867	-3.89133e-05	0.000299934	0.0615678	0.0882459	0.107601	55.0971	-1.13573e-05
5621.06	5.68016	8.32982	10.0822	-55.7097	26.9793	3.27358	0.00773694	3.39912	2.32023	1	10	0.118579	0.0117613	-2.95958e-05	-2.05e-05	0.0558795	0.081946	0.099185	55.7097	9.31754e-06
5011.6	6.08763	9.0879	10.9384	-56.1834	27.7397	3.2736	0.0119618	3.49446	2.41211	1	10	0.116812	0.0106791	-2.46721e-05	5.96085e-05	0.050879	0.0759545	0.0914208	56.1834	4.92369e-06
4466.43	6.54752	9.90288	11.8717	-56.5284	28.4997	3.2736	0.0109825	3.59831	2.50378	1	10	0.115333	0.00971493	-1.77137e-05	-2.05e-05	0.0464571	0.0702645	0.084234	56.5284	6.9584e-06
3981.27	7.07519	10.7577	12.8758	-56.6676	29.4797	3.2736	0.0107773	3.71604	2.59399	1	10	0.12654	0.00982772	-2.26605e-05	-0.000180717	0.0426767	0.064889	0.0776652	56.6676	-4.94673e-06
3546.6	7.66028	11.6894	13.9758	-56.7624	30.24	3.27359	0.0108799	3.83898	2.68565	1	10	0.125418	0.008974	-2.68947e-05	-0.000180717	0.0392187	0.0598468	0.0715524	56.7624	-4.23425e-06
3161.01	8.31349	12.6758	15.1588	-56.7409	30.9997	3.2736	0.0107064	3.97209	2.7774	1	10	0.1245	0.00821307	-3.11196e-05	-0.000661368	0.0361787	0.0551626	0.0659682	56.7409	-4.22487e-06
2817.3	9.04266	13.7215	16.4332	-56.6146	31.7599	3.2736	0.0106728	4.11704	2.87043	1	10	0.123754	0.00753076	-3.29987e-05	-2.05e-05	0.0334852	0.0508111	0.0608525	56.6146	-1.87916e-06
2510.8	9.85797	14.8287	17.8065	-56.3844	32.5197	3.27359	0.0107064	4.27469	2.96453	1	10	0.123137	0.00691533	-2.79646e-05	-0.000100609	0.0310909	0.0467679	0.0561594	56.3844	5.03415e-06
2237.85	10.7627	15.9909	19.2755	-56.0575	33.2799	3.2736	0.0103109	4.4475	3.06092	1	10	0.122629	0.00636193	-2.10375e-05	-0.00058126	0.0289674	0.0430391	0.0518794	56.0575	6.92705e-06
1995.64	11.76	17.2059	20.8409	-55.648	34.0397	3.2736	0.0110122	4.63511	3.15926	1	10	0.122216	0.00586427	-2.20013e-05	-0.000100609	0.0270754	0.0396138	0.0479827	55.648	-9.63747e-07
1778.29	12.8705	18.4861	22.5252	-55.1533	34.8	3.2736	0.0102754	4.84141	3.2608	1	10	0.121874	0.00541057	-2.15064e-05	-0.000100609	0.0253663	0.036434	0.0443947	55.1533	4.94893e-07
1585.51	14.092	19.8113	24.3119	-54.5752	35.5597	3.2736	0.0116053	5.06687	3.36453	1	10	0.121601	0.00500168	-1.53659e-05	-0.000421043	0.0238415	0.0335176	0.041132	54.5752	6.14047e-06
1411.84	15.4488	21.2025	26.2338	-53.9217	36.3212	3.27359	0.010337	5.31677	3.47296	1	10	0.121374	0.00462664	-1.59019e-05	-0.000661368	0.0224477	0.030808	0.0381187	53.9217	-5.35995e-07
1258.79	16.9183	22.617	28.2446	-53.2023	37.0809	3.27359	0.0106317	5.59024	3.58451	1	10	0.121179	0.00429033	-1.13271e-05	-0.000260826	0.0212073	0.0283507	0.0354049	53.2023	4.57485e-06
1121.79	18.5383	24.0849	30.3933	-52.4143	37.8395	3.27359	0.0105403	5.89063	3.6991	1	10	0.121032	0.00398219	-1.14119e-05	-0.000180717	0.0200685	0.0260729	0.032902	52.4143	-8.48058e-08
1000.32	20.3178	25.5363	32.633	-51.4927	38.8497	3.27359	-0.000441918	6.23051	3.81526	1	11	0.125465	0.00384474	-1.16025e-05	-0.000421043	0.0190793	0.0239797	0.0306438	51.4927	-1.90625e-07
891.427	22.2384	27.0608	35.0262	-50.5868	39.6084	3.27359	-0.000643501	6.59772	3.93812	1	11	0.124523	0.00355513	-1.1687e-05	-0.000421043	0.0181267	0.0220574	0.0285501	50.5868	-8.45306e-08
794.238	24.3291	28.6041	37.5512	-49.6173	40.368	3.27359	-0.000622789	7.00554	4.06489	1	11	0.123756	0.00329564	-1.30309e-05	-0.000501151	0.0172535	0.0202852	0.0266303	49.6173	-1.34385e-06
707.509	26.6001	30.1499	40.2067	-48.5793	41.1305	3.27359	-0.000713693	7.4611	4.19543	1	11	0.123124	0.00306228	-1.17685e-05	0.000299934	0.0164546	0.0186504	0.0248715	48.5793	1.26234e-06
631.01	29.031	31.6691	42.962	-47.4886	41.8884	3.27359	-0.000715003	7.96432	4.32764	1	11	0.12262	0.00285415	-1.10243e-05	-0.000821585	0.0157287	0.017158	0.0232764	47.4886	7.44224e-07
562.339	31.6705	33.1641	45.8572	-46.3197	42.6449	3.27359	-0.000585109	8.534	4.4635	1	11	0.122203	0.00266486	-8.78166e-06	-0.000100609	0.0150605	0.0157708	0.0218068	46.3197	2.24265e-06
501.444	34.4946	34.5964	48.8547	-45.0844	43.4022	3.27359	-0.00061312	9.17418	4.60061	1	11	0.121862	0.00249438	-1.00856e-05	-0.000260826	0.0144523	0.014495	0.0204689	45.0844	-1.30393e-06
446.859	37.5318	35.9574	51.9766	-43.7727	44.1589	3.27359	-0.000627307	9.90517	4.74047	1	11	0.121582	0.00233916	-8.16907e-06	-0.000180717	0.0138926	0.0133098	0.0192394	43.7727	1.91652e-06
398.089	40.7832	37.2111	55.2081	-42.3777	44.9217	3.27359	-0.000631228	10.744	4.88097	1	11	0.121355	0.00219813	-8.65226e-06	-0.000180717	0.0133806	0.0122086	0.0181133	42.3777	-4.83198e-07
354.66	44.2261	38.3156	58.5152	-40.9042	45.6819	3.27358	-0.000641871	11.7121	5.02164	1	11	0.121167	0.00207069	-7.48086e-06	-0.000741477	0.0129164	0.0111902	0.0170896	40.9042	1.17141e-06
316.316	47.8045	39.235	61.8438	-39.3771	46.4389	3.27359	-0.000701784	12.8241	5.16156	1	11	0.121011	0.00195672	-9.1586e-06	0.000139717	0.012499	0.0102584	0.0161698	39.3771	-1.67774e-06
281.894	51.5661	39.9489	65.2302	-37.7654	47.1944	3.27359	-0.000618913	14.1328	5.3008	1	11	0.12089	0.00185329	-8.42186e-06	-0.000180717	0.012119	0.00938875	0.0153303	37.7654	7.36745e-07
251.044	55.4633	40.4178	68.6278	-36.0819	47.9509	3.27358	-0.000609769	15.6855	5.44054	1	11	0.120781	0.00175994	-1.00911e-05	-0.000421043	0.0117762	0.00858168	0.0145714	36.0819	-1.66927e-06
223.925	59.3853	40.6128	71.9445	-34.3677	48.7137	3.27359	-0.00055247	17.5007	5.5768	1	11	0.120694	0.0016776	-1.17042e-05	0.000219826	0.0114732	0.00784635	0.0138996	34.3677	-1.61306e-06
199.553	63.3683	40.5327	75.2226	-32.6045	49.4752	3.27359	-0.000599692	19.6769	5.71308	1	11	0.120631	0.00160365	-1.31144e-05	-0.000741477	0.0111989	0.00716322	0.0132939	32.6045	-1.41017e-06
177.781	67.331	40.155	78.3957	-30.8111	50.2422	3.27359	-0.000595402	22.2943	5.8491	1	11	0.120573	0.00153801	-1.34241e-05	-0.000180717	0.0109555	0.00653364	0.0127558	30.8111	-3.09769e-07
158.428	71.2046	39.5016	81.4277	-29.0198	51.0087	3.27359	-0.000555275	25.4316	5.98491	1	11	0.120529	0.0014802	-1.46441e-05	-2.05e-05	0.010739	0.00595759	0.0122808	29.0198	-1.22e-06
141.311	74.9219	38.5824	84.2728	-27.247	51.7619	3.27359	-0.000686863	29.1913	6.11868	1	11	0.12049	0.00142976	-1.34235e-05	-0.000260826	0.0105496	0.00543269	0.0118662	27.247	1.22062e-06
125.846	78.5092	37.4271	86.974	-25.4882	52.5174	3.2736	-0.000510855	33.7906	6.25733	1	11	0.120463	0.00138505	-1.46076e-05	-2.05e-05	0.0103787	0.00494774	0.0114977	25.4882	-1.18408e-06
112.19	81.8546	36.0803	89.4537	-23.7872	53.2628	3.27359	-0.000601753	39.3184	6.39646	1	11	0.120438	0.00134637	-1.57169e-05	-0.000180717	0.0102293	0.00450893	0.011179	23.7872	-1.10931e-06
100.032	84.9652	34.5859	91.7348	-22.1492	54.0227	3.27359	-0.000773845	46.0026	6.539	1	11	0.120415	0.00131265	-1.53017e-05	-0.000340934	0.0100965	0.00410989	0.010901	22.1492	4.15197e-07
89.116	87.8386	32.9767	93.8248	-20.5773	54.7887	3.27359	-0.000632929	54.1574	6.69016	1	11	0.120396	0.0012832	-1.47947e-05	-0.000260826	0.00997816	0.00374603	0.0106582	20.5773	5.07026e-07
79.4155	90.4574	31.3074	95.7219	-19.0908	55.5532	3.27358	-0.000554726	64.0129	6.84761	1	11	0.120383	0.00125763	-1.58538e-05	5.96085e-05	0.00987236	0.00341684	0.0104469	19.0908	-1.05914e-06
70.8387	92.7953	29.6347	97.4124	-17.7112	56.3044	3.27357	-0.000695275	75.8139	7.01651	1	11	0.120372	0.00123569	-1.57493e-05	-0.000100609	0.00977906	0.003123	0.0102656	17.7112	1.04494e-07
63.0823	94.9451	27.943	98.9716	-16.3995	57.0849	3.27358	-0.000469619	90.29	7.19721	1	11	0.120371	0.00121622	-1.51945e-05	-0.000340934	0.00969284	0.00285267	0.0101039	16.3995	5.54851e-07
56.2418	96.8428	26.3068	100.352	-15.1974	57.8294	3.27359	-0.000469059	107.57	7.39222	1	11	0.12036	0.00119938	-1.57502e-05	-0.000180717	0.00961641	0.00261225	0.0099649	15.1974	-5.55746e-07
50.1444	98.5436	24.7359	101.601	-14.091	58.5862	3.27359	-0.000348672	128.313	7.60557	1	11	0.120352	0.00118456	-1.62484e-05	-0.000100609	0.00954629	0.00239626	0.00984245	14.091	-4.98152e-07
44.6712	100.08	23.2434	102.744	-13.075	59.3502	3.27358	-0.00043117	153.282	7.84476	1	11	0.120352	0.00117138	-1.56958e-05	0.000219826	0.0094806	0.00220185	0.00973293	13.075	5.52618e-07
39.8089	101.449	21.8465	103.775	-12.1528	60.1127	3.27359	-0.000154745	183.003	8.11036	1	11	0.120349	0.00115971	-1.69478e-05	-0.000340934	0.00942032	0.00202862	0.00963627	12.1528	-1.252e-06
35.4653	102.69	20.5448	104.725	-11.3136	60.8621	3.27359	-0.000698636	218.431	8.40663	1	11	0.120348	0.00114919	-1.50827e-05	0.000299934	0.0093633	0.00187329	0.00954886	11.3136	1.86502e-06
31.6296	103.798	19.3638	105.589	-10.5672	61.5864	3.27359	-0.000580489	259.859	8.73942	1	11	0.120339	0.0011397	-1.56956e-05	-0.000100609	0.0093101	0.00173682	0.00947072	10.5672	-6.12893e-07
28.1701	104.832	18.2694	106.412	-9.88585	62.3908	3.27359	-0.00012731	309.249	9.11544	1	11	0.12034	0.00113089	-1.86689e-05	5.96085e-05	0.00925794	0.00161341	0.00939747	9.88585	-2.9733e-06
25.1044	105.763	17.2802	107.166	-9.27931	63.1469	3.27359	-0.000748844	366.878	9.53908	1	11	0.120336	0.0011229	-1.91395e-05	-0.000661368	0.00920923	0.00150465	0.00933134	9.27931	-4.70569e-07
22.3854	106.628	16.4041	107.882	-8.74603	63.8334	3.27357	-0.00127463	433.415	10.0209	1	11	0.120335	0.00111543	-1.6002e-05	-0.000260826	0.00916157	0.00140945	0.00926935	8.74603	3.1375e-06
19.9553	107.44	15.6178	108.57	-8.27074	64.5952	3.27359	-0.00037779	510.671	10.5673	1	11	0.120338	0.0011084	-1.57311e-05	-0.000421043	0.00911488	0.00132496	0.00921068	8.27074	2.70927e-07
17.7961	108.201	14.9286	109.226	-7.85556	65.4395	3.2736	-6.86115e-05	599.067	11.1908	1	11	0.120334	0.0011017	-1.52387e-05	-0.000100609	0.00906941	0.00125132	0.00915533	7.85556	4.92399e-07
15.8576	108.919	14.3114	109.855	-7.4855	66.161	3.27359	-0.000241912	701.297	11.9022	1	11	0.120336	0.00109541	-2.0149e-05	-0.00058126	0.00902534	0.00118589	0.00910292	7.4855	-4.91033e-06
14.119	109.607	13.7902	110.471	-7.171	66.9633	3.27359	-0.000640028	817.423	12.7377	1	11	0.120331	0.00108926	-1.52613e-05	-0.000260826	0.00898135	0.00112999	0.00905216	7.171	4.88774e-06
12.6008	110.255	13.3519	111.06	-6.90494	67.8538	3.2736	7.44882e-06	945.971	13.6725	1	11	0.120332	0.00108348	-1.50333e-05	-2.05e-05	0.00893882	0.0010825	0.00900413	6.90494	2.27956e-07
11.2249	110.88	12.9777	111.637	-6.67571	68.5379	3.27359	-0.000177891	1092.55	14.7647	1	11	0.120332	0.00107789	-1.69877e-05	-0.000100609	0.00889688	0.00104132	0.00895762	6.67571	-1.95442e-06
10.0032	111.481	12.6891	112.2	-6.49363	69.2987	3.27358	-2.89465e-05	1253.87	16.0369	1	11	0.120333	0.00107248	-2.26023e-05	-0.000501151	0.00885545	0.00100795	0.00891263	6.49363	-5.61456e-06
8.91838	112.073	12.4643	112.764	-6.34609	70.143	3.27359	-0.000771803	1431.75	17.4927	1	11	0.120332	0.00106711	-1.36468e-05	5.96085e-05	0.00881371	0.00098022	0.00886805	6.34609	8.95546e-06
7.93953	112.653	12.3256	113.325	-6.244	71.0817	3.27359	0.000141181	1626.37	19.2388	1	11	0.120332	0.00106183	-2.31017e-05	5.96085e-05	0.00877182	0.00095974	0.00882417	6.244	-9.4549e-06
7.07654	113.176	12.2507	113.837	-6.17795	71.64	3.27358	-0.0019697	1835.85	21.2617	1	11	0.120334	0.00105707	-2.24033e-05	-0.000501151	0.0087335	0.000945361	0.00878452	6.17795	6.98454e-07
6.31058	113.73	12.2234	114.385	-6.13444	72.2602	3.27357	-0.00210969	2063.28	23.5615	1	11	0.120333	0.001052	-1.81536e-05	-2.05e-05	0.00869232	0.000934227	0.00874238	6.13444	4.24971e-06
5.6205	114.262	12.3203	114.924	-6.15413	72.9457	3.27357	-0.0012093	2298.4	26.4145	1	11	0.120326	0.001047	-1.07947e-05	-2.05e-05	0.00865124	0.000932818	0.00870139	6.15413	7.35882e-06
5.01444	114.793	12.4825	115.47	-6.20592	73.7032	3.27358	0.000356292	2542.71	29.7142	1	11	0.120328	0.00104208	-9.07811e-06	-0.000180717	0.00860954	0.000936195	0.00866029	6.20592	1.71663e-06
4.46939	115.306	12.7342	116.007	-6.30213	74.5445	3.2736	0.00134179	2796.4	33.6958	1	11	0.120331	0.00103727	-2.21847e-05	-0.000100609	0.00856808	0.000946248	0.00862017	6.30213	-1.31066e-05
3.97785	115.875	13.0675	116.609	-6.43423	75.4812	3.27359	-0.000681653	3061.81	38.4503	1	11	0.120327	0.00103188	-2.80028e-05	0.000139717	0.00852164	0.000961011	0.00857566	6.43423	-5.81805e-06
3.55114	116.36	13.4751	117.138	-6.60572	76.5224	3.27359	-0.0018608	3325.98	44.0139	1	11	0.120329	0.00102724	-7.7598e-06	-0.000260826	0.00848027	0.000982058	0.00853694	6.60572	2.0243e-05
3.1604	116.958	13.968	117.789	-6.81043	77.6842	3.27359	0.0004512	3605.33	50.6994	1	11	0.120329	0.00102157	-1.3939e-05	0.000219826	0.00842986	0.00100676	0.00848977	6.81043	-6.17917e-06
2.81836	117.522	14.6169	118.428	-7.0898	78.9797	3.27359	0.000461649	3863.38	58.8535	1	11	0.12033	0.00101606	-3.36242e-05	-0.000340934	0.0083794	0.00104219	0.00844396	7.0898	-1.96853e-05
2.51367	118.061	15.2963	119.048	-7.38227	80.4237	3.27358	-0.00127616	4139.29	68.3369	1	11	0.12033	0.00101077	-2.13356e-06	0.000219826	0.00833037	0.0010793	0.0084	7.38227	3.14907e-05
2.23982	118.69	16.0972	119.777	-7.72354	82.0384	3.27359	0.00118771	4414.23	79.7279	1	11	0.120328	0.0010046	-2.41251e-05	-0.000501151	0.0082731	0.00112203	0.00834884	7.72354	-2.19915e-05
1.99706	119.357	17.0566	120.57	-8.13273	83.8417	3.27359	-0.000519038	4672.36	93.5073	1	11	0.12033	0.000998009	-2.65455e-05	-0.000180717	0.00821055	0.00117332	0.00829396	8.13273	-2.42039e-06
1.77961	120.003	18.1671	121.37	-8.60859	85.8599	3.2736	-0.000410503	4922.76	110.295	1	11	0.12033	0.000991432	2.80017e-06	-0.000421043	0.00814644	0.00123328	0.00823926	8.60859	2.93456e-05
1.58469	120.686	19.3916	122.234	-9.12816	88.1191	3.27359	0.000801582	5179.2	130.349	1	11	0.12033	0.000984419	-4.57472e-05	-2.05e-05	0.00807742	0.00129787	0.00818103	9.12816	-4.85473e-05
1.41224	121.414	20.7161	123.169	-9.68279	90.6482	3.27359	-0.000883549	5440.06	153.894	1	11	0.120328	0.000976939	1.05738e-05	-0.000100609	0.00800329	0.00136555	0.00811895	9.68279	5.63209e-05
1.25967	122.246	22.2132	124.248	-10.2988	93.4759	3.27359	0.000929322	5687.88	181.8	1	11	0.120329	0.000968456	-4.15755e-05	-0.000340934	0.00791875	0.00143891	0.00804842	10.2988	-5.21493e-05
1.12249	123.124	23.9069	125.423	-10.9884	96.6431	3.27359	-0.000588704	5930.84	215.48	1	11	0.120329	0.000959385	-2.85311e-06	0.000219826	0.00782684	0.00151974	0.00797302	10.9884	3.87224e-05
1.00006	124.105	25.8282	126.764	-11.7564	100.191	3.27359	0.000592178	6161.68	255.797	1	11	0.120328	0.000949234	-2.02041e-05	-0.000340934	0.00772321	0.00160732	0.00788869	11.7564	-1.7351e-05