File: utils/DE_206_6_30.mpt
EC-Lab ASCII FILE
Nb header lines : 60

Potentio Electrochemical Impedance Spectroscopy

Run on channel : 6 (SN 41300)
User :
CE vs. WE compliance from -10 V to 10 V
Electrode connection : standard
Ewe ctrl range : min = -10.00 V, max = 10.00 V
Acquisition started on : 12/03/2020 16:53:40
Technique started on : 12/03/2020 16:53:41
Saved on :
	File : DE_206_6_30.mpr
	Directory : P:\Chemistry\Data\VMP3\Kyler\DOE\DE_206\
	Host : 10.0.4.64
Device : VMP3 (SN 1432)
Address : USB
EC-Lab for windows v11.33 (software)
Internet server v11.32 (firmware)
Command interpretor v11.33 (firmware)
Electrode material :
Initial state :
Electrolyte :
Comments :
Electrode surface area : 0.001 cm²
Characteristic mass : 0.001 g
Equivalent Weight : 0.000 g/eq.
Density : 0.000 g/cm3
Record Analogic IN 1
Cycle Definition : Charge/Discharge alternance
Mode                Single sine
E (V)               0.0000
vs.                 Eoc
tE (h:m:s)          0:00:0.0000
record              0
dI                  1.000
unit dI             mA
dt (s)              0.000
fi                  1.000
unit fi             MHz
ff                  1.000
unit ff             Hz
Nd                  20
Points              per decade
spacing             Logarithmic
Va (mV)             128.0
pw                  0.50
Na                  3
corr                0
E range min (V)     -10.000
E range max (V)     10.000
I Range             Auto
Bandwidth           5
nc cycles           0
goto Ns'            0
nr cycles           0
inc. cycle          1

freq/Hz	Re(Z)/Ohm	-Im(Z)/Ohm	|Z|/Ohm	Phase(Z)/deg	time/s	<Ewe>/V	<I>/mA	Cs/µF	Cp/µF	cycle number	I Range	|Ewe|/V	|I|/A	(Q-Qo)/mA.h	Analog IN 1/V	Re(Y)/Ohm-1	Im(Y)/Ohm-1	|Y|/Ohm-1	Phase(Y)/deg	dq/mA.h
1.00002e+06	-11.5864	45.4343	46.8884	-104.306	1.8456	3.32612	0.2129	0.0035029	0.00328901	1	9	5.61612e-05	1.19776e-06	2.25835e-05	-0.000799647	-0.00527008	0.0206658	0.0213272	104.306	2.25835e-05
891247	89.4428	33.5214	95.5181	-20.545	3.02047	3.32566	0.00122444	0.00532721	0.000656106	1	11	0.00068217	7.14179e-06	4.258e-05	-0.000559145	0.00980335	0.00367411	0.0104692	20.545	1.99966e-05
794333	93.5671	32.0675	98.9097	-18.9177	3.61549	3.32547	0.000840057	0.00624816	0.000656757	1	11	0.00182133	1.8414e-05	4.2724e-05	-0.000639313	0.00956413	0.00327784	0.0101102	18.9177	1.43924e-07
707950	97.3347	31.0296	102.161	-17.6819	4.21049	3.3254	0.000739074	0.00724506	0.000668379	1	11	0.00358976	3.51382e-05	4.30124e-05	-0.000238476	0.00932603	0.00297307	0.00978846	17.6819	2.88397e-07
630957	100.865	30.2751	105.31	-16.7074	4.80647	3.32541	0.000901546	0.00833174	0.000688593	1	11	0.00607457	5.76826e-05	4.34094e-05	-7.81411e-05	0.00909488	0.00272987	0.00949574	16.7074	3.97031e-07
562342	104.121	29.6342	108.256	-15.887	5.40148	3.32542	0.000959305	0.00955051	0.000715663	1	11	0.00932018	8.60939e-05	4.35319e-05	-0.000238476	0.00888453	0.00252865	0.00923736	15.887	1.22562e-07
501206	107.125	28.8889	110.952	-15.0921	5.99847	3.32545	0.00100067	0.0109919	0.000745182	1	11	0.0133916	0.000120697	4.35662e-05	-0.000238476	0.00870202	0.0023467	0.00901289	15.0921	3.42167e-08
446686	109.96	28.2026	113.519	-14.3853	6.59449	3.3255	0.00106309	0.0126336	0.000779782	1	11	0.0182773	0.000161007	4.34783e-05	-0.000478978	0.00853293	0.00218854	0.00880912	14.3853	-8.78885e-08
398103	112.484	27.3749	115.767	-13.678	7.19049	3.32552	0.00122016	0.014604	0.000816596	1	11	0.0239829	0.000207165	4.35541e-05	-0.000639313	0.00839307	0.0020426	0.00863805	13.678	7.57892e-08
354810	114.804	26.5655	117.838	-13.0288	7.78749	3.32555	0.00138934	0.0168852	0.000858167	1	11	0.0305551	0.000259298	4.43875e-05	-0.000158308	0.00826777	0.00191314	0.00848623	13.0288	8.33427e-07
316230	117.009	25.6885	119.795	-12.3825	8.38249	3.32553	0.00126022	0.019592	0.000900901	1	11	0.0380581	0.000317693	4.48689e-05	-0.000879815	0.00815339	0.00179003	0.00834758	12.3825	4.8139e-07
281835	119.022	24.8089	121.58	-11.7742	8.97848	3.32551	0.00120414	0.0227624	0.000947789	1	11	0.0465091	0.00038254	4.47323e-05	-0.000559145	0.008052	0.00167836	0.00822505	11.7742	-1.36543e-07
251188	120.895	23.9466	123.244	-11.204	9.57448	3.3255	0.00125408	0.0264593	0.00099893	1	11	0.0559732	0.000454166	4.53748e-05	-0.000398811	0.00795935	0.00157657	0.00811399	11.204	6.42427e-07
223872	122.639	23.0503	124.787	-10.6447	10.1695	3.3255	0.0013245	0.0308421	0.00105235	1	11	0.066461	0.000532596	4.45983e-05	8.21936e-05	0.00787577	0.00148027	0.00801367	10.6447	-7.76445e-07
199544	124.287	22.2118	126.256	-10.1326	10.7665	3.32547	0.00116837	0.0359086	0.00111137	1	11	0.0779353	0.000617277	4.59536e-05	-0.000398811	0.00779686	0.0013934	0.00792039	10.1326	1.35526e-06
177832	125.821	21.405	127.628	-9.65488	11.3615	3.32545	0.00114061	0.0418115	0.00117606	1	11	0.0904135	0.000708412	4.48676e-05	-0.00071948	0.00772427	0.00131407	0.00783525	9.65488	-1.08593e-06
158486	127.288	20.5899	128.942	-9.18848	11.9575	3.32544	0.00100292	0.0487725	0.00124363	1	11	0.103833	0.000805267	4.39698e-05	-0.000478978	0.00765589	0.0012384	0.0077554	9.18848	-8.97891e-07
141256	128.681	19.8441	130.202	-8.76662	12.4175	3.32546	0.00119707	0.0567783	0.00131889	1	11	0.118247	0.000908182	4.36421e-05	-0.000318643	0.00759065	0.00117057	0.00768038	8.76662	-3.27622e-07
125909	130.001	19.0963	131.396	-8.35663	12.8775	3.32547	0.00123732	0.0661931	0.00139813	1	11	0.13375	0.00101792	4.46303e-05	-0.00071948	0.00752978	0.00110608	0.00761059	8.35663	9.88148e-07
112205	131.258	18.389	132.539	-7.97513	13.4725	3.32549	0.00119409	0.0771349	0.00148482	1	11	0.129929	0.000980307	4.35221e-05	-0.000639313	0.00747195	0.00104681	0.00754492	7.97513	-1.10814e-06
100004	132.444	17.7127	133.623	-7.61738	14.0685	3.3255	0.00137799	0.0898503	0.00157879	1	11	0.129788	0.000971301	4.32978e-05	-0.000398811	0.0074177	0.000992023	0.00748374	7.61738	-2.24301e-07
89129.3	133.574	17.0756	134.661	-7.28497	14.6635	3.32551	0.00136271	0.104574	0.00168148	1	11	0.129643	0.000962734	4.17105e-05	-0.000639313	0.0073661	0.000941654	0.00742604	7.28497	-1.58735e-06
79433.3	134.64	16.4703	135.643	-6.97428	15.2585	3.32555	0.001634	0.121651	0.00179359	1	11	0.129685	0.000956073	4.22392e-05	-0.000158308	0.00731772	0.000895169	0.00737227	6.97428	5.2871e-07
70795	135.663	15.8986	136.591	-6.68413	15.8545	3.32552	0.0013819	0.141403	0.00191572	1	11	0.129497	0.000948063	4.39762e-05	0.000162361	0.00727137	0.000852148	0.00732113	6.68413	1.73699e-06
63093.8	136.634	15.3686	137.496	-6.41763	16.4505	3.32553	0.00140687	0.164134	0.00205063	1	11	0.129434	0.000941366	4.39574e-05	-0.000158308	0.00722736	0.00081293	0.00727294	6.41763	-1.8759e-08
56237	137.534	14.8851	138.337	-6.177	17.0455	3.32554	0.00142569	0.190129	0.00220127	1	11	0.129261	0.000934392	4.60745e-05	-0.000559145	0.00718677	0.000777813	0.00722874	6.177	2.11705e-06
50122.5	138.402	14.4485	139.155	-5.95981	17.5055	3.32554	0.00134743	0.219768	0.00236928	1	11	0.140236	0.00100777	4.55709e-05	-0.000398811	0.00714741	0.000746154	0.00718625	5.95981	-5.03566e-07
44666.7	139.232	14.0644	139.94	-5.76811	18.1005	3.32554	0.00138637	0.253347	0.002559	1	11	0.130399	0.000931816	4.53146e-05	-0.000478978	0.00710972	0.00071818	0.0071459	5.76811	-2.56334e-07
39814.1	140.037	13.7301	140.709	-5.59972	18.5595	3.32556	0.00144693	0.291146	0.00277214	1	11	0.139596	0.000992089	4.59089e-05	-0.000478978	0.00707297	0.000693476	0.00710688	5.59972	5.94283e-07
35481	140.781	13.4403	141.421	-5.45349	19.1545	3.32555	0.00139755	0.333745	0.00301444	1	11	0.130024	0.000919409	4.7318e-05	-0.000478978	0.00703909	0.000672021	0.00707109	5.45349	1.40919e-06
31621.1	141.527	13.2181	142.142	-5.33574	19.6135	3.32557	0.00144879	0.38078	0.00329278	1	11	0.137279	0.000965786	4.80809e-05	-0.000158308	0.00700471	0.000654215	0.0070352	5.33574	7.62827e-07
28188.1	142.238	13.056	142.836	-5.24447	20.2085	3.32555	0.00141526	0.43246	0.00361319	1	11	0.129518	0.000906765	4.70638e-05	-0.000238476	0.00697175	0.000639935	0.00700106	5.24447	-1.01703e-06
25116.9	142.932	12.9543	143.517	-5.17873	20.6675	3.32557	0.00143687	0.489148	0.00398528	1	11	0.134958	0.000940357	4.65222e-05	-0.000238476	0.00693936	0.000628933	0.0069678	5.17873	-5.41627e-07
22389	143.618	12.8973	144.196	-5.13155	21.1265	3.32558	0.00142457	0.551172	0.00440938	1	11	0.139751	0.000969176	4.76459e-05	-0.000478978	0.00690722	0.000620287	0.00693501	5.13155	1.12373e-06
19948.8	144.317	12.9061	144.893	-5.11028	21.7225	3.32557	0.00144581	0.618173	0.00490459	1	11	0.129659	0.00089486	4.89834e-05	-0.000559145	0.00687421	0.000614751	0.00690165	5.11028	1.33743e-06
17786.9	144.988	12.9939	145.569	-5.12117	22.1825	3.32558	0.00145513	0.688623	0.00548679	1	11	0.132851	0.000912627	4.93678e-05	-0.000158308	0.00684215	0.000613195	0.00686958	5.12117	3.84412e-07
15847.7	145.678	13.1359	146.269	-5.15248	22.6415	3.32558	0.0014991	0.764531	0.00616611	1	11	0.135565	0.000926823	4.99364e-05	-0.000478978	0.00680911	0.000613984	0.00683674	5.15248	5.68609e-07
14121.9	146.388	13.3392	146.994	-5.20654	23.1015	3.32558	0.0014691	0.844887	0.00695756	1	11	0.137818	0.000937575	4.97851e-05	-0.000478978	0.00677492	0.000617347	0.00680299	5.20654	-1.5132e-07
12590.9	147.115	13.618	147.744	-5.28861	23.5615	3.32558	0.00142103	0.928217	0.00788595	1	11	0.139655	0.000945249	5.05752e-05	-0.000559145	0.00673964	0.000623866	0.00676845	5.28861	7.90132e-07
11217.7	147.88	13.9456	148.536	-5.38727	24.1575	3.32557	0.00143556	1.01737	0.00896791	1	11	0.129328	0.000870686	5.12346e-05	2.02625e-06	0.00670265	0.000632085	0.00673239	5.38727	6.59387e-07
10002.2	148.664	14.3458	149.354	-5.51186	24.6165	3.32558	0.00150953	1.10917	0.0102332	1	11	0.130433	0.000873313	5.10087e-05	-0.000158308	0.00666452	0.000643114	0.00669548	5.51186	-2.25862e-07
8914.93	149.486	14.8079	150.218	-5.65718	25.0989	3.32562	0.00172734	1.20561	0.0117153	1	11	0.131315	0.000874163	5.17524e-05	-0.000559145	0.00662456	0.00065622	0.00665699	5.65718	7.43634e-07
7944	150.36	15.3302	151.14	-5.82155	25.625	3.32563	0.0016884	1.30687	0.0134453	1	11	0.132006	0.000873407	5.18139e-05	0.000162361	0.00658228	0.000671105	0.0066164	5.82155	6.15108e-08
7082.23	151.299	15.9246	152.135	-6.00842	26.2019	3.32563	0.00168505	1.41117	0.0154619	1	11	0.132556	0.000871306	5.17288e-05	-0.000318643	0.00653701	0.000688038	0.00657312	6.00842	-8.5088e-08
6307.73	152.304	16.5679	153.203	-6.20831	26.8355	3.32563	0.00154251	1.52293	0.0178107	1	11	0.132992	0.000868077	5.23658e-05	2.02625e-06	0.00648902	0.000705886	0.0065273	6.20831	6.37019e-07
5621.06	153.384	17.2602	154.352	-6.42044	27.5363	3.32565	0.00166884	1.64043	0.0205127	1	11	0.133316	0.000863715	5.32655e-05	-7.81411e-05	0.00643807	0.000724471	0.0064787	6.42044	8.99673e-07
5011.6	154.547	18.007	155.592	-6.64586	28.2967	3.32566	0.00165151	1.7636	0.0236216	1	11	0.13357	0.00085846	5.42122e-05	-0.000639313	0.00638387	0.000743817	0.00642705	6.64586	9.46679e-07
4466.43	155.809	18.7759	156.937	-6.87135	29.0567	3.32565	0.00163977	1.89783	0.0271652	1	11	0.133764	0.000852344	5.52424e-05	8.21936e-05	0.00632623	0.000762349	0.006372	6.87135	1.03019e-06
3981.27	157.163	19.5931	158.38	-7.10623	29.8157	3.32566	0.00164182	2.0403	0.0312249	1	11	0.133901	0.000845442	5.50493e-05	-0.000318643	0.00626543	0.000781093	0.00631393	7.10623	-1.93086e-07
3546.6	158.648	20.4282	159.958	-7.33727	30.576	3.32566	0.00168691	2.19674	0.0358283	1	11	0.134005	0.000837751	5.5783e-05	-0.000398811	0.00620045	0.000798395	0.00625164	7.33727	7.33745e-07
3161.01	160.224	21.2638	161.629	-7.55972	31.3357	3.32566	0.00165319	2.36784	0.0409824	1	11	0.134078	0.000829543	5.58336e-05	-7.81411e-05	0.00613324	0.000813961	0.00618702	7.55972	5.06071e-08
2817.3	161.939	22.0868	163.438	-7.76662	32.0959	3.32567	0.00167964	2.55773	0.0467102	1	11	0.134122	0.000820627	5.55229e-05	-0.000238476	0.00606238	0.000826845	0.00611851	7.76662	-3.10756e-07
2510.8	163.766	22.8852	165.357	-7.95519	32.8557	3.32567	0.00168225	2.76982	0.0530537	1	11	0.134146	0.000811249	5.56969e-05	-0.000478978	0.00598931	0.000836966	0.0060475	7.95519	1.74062e-07
2237.85	165.713	23.6422	167.391	-8.11957	33.616	3.32566	0.00166548	3.00817	0.0600086	1	11	0.134158	0.000801468	5.66354e-05	-0.000478978	0.00591416	0.000843772	0.00597405	8.11957	9.38501e-07
1995.64	167.781	24.3315	169.536	-8.25146	34.3757	3.32567	0.00176889	3.27771	0.067512	1	11	0.134164	0.000791361	5.64992e-05	-0.000318643	0.00583738	0.000846531	0.00589844	8.25146	-1.3626e-07
1778.29	169.972	24.9278	171.79	-8.34344	35.1349	3.32566	0.00166436	3.59032	0.0755972	1	11	0.134161	0.000780961	5.73498e-05	-0.000158308	0.00575946	0.000844674	0.00582107	8.34344	8.50622e-07
1585.51	172.246	25.4211	174.112	-8.39544	35.8947	3.32564	0.00149034	3.94872	0.084176	1	11	0.134154	0.000770506	5.71695e-05	2.02625e-06	0.00568187	0.000838564	0.00574342	8.39544	-1.80329e-07
1411.84	174.616	25.8007	176.512	-8.40501	36.6562	3.32566	0.00167778	4.36923	0.0933509	1	11	0.134134	0.000759915	5.80293e-05	-0.000318643	0.0056045	0.000828101	0.00566534	8.40501	8.59884e-07
1258.79	177.035	26.0176	178.936	-8.36052	37.4159	3.32565	0.00159337	4.85959	0.102739	1	11	0.134118	0.000749528	5.79918e-05	2.02625e-06	0.00552919	0.000812587	0.00558858	8.36052	-3.75135e-08
1121.79	179.493	26.1008	181.38	-8.27364	38.1745	3.32566	0.00170927	5.43566	0.112559	1	11	0.134107	0.000739369	5.87294e-05	-0.000238476	0.00545589	0.000793366	0.00551327	8.27364	7.37578e-07
1000.32	181.93	26.0165	183.781	-8.13828	38.9337	3.32567	0.0016597	6.11551	0.122555	1	11	0.134091	0.000729626	5.94834e-05	-0.000799647	0.00538647	0.000770281	0.00544127	8.13828	7.53963e-07
891.427	184.352	25.7781	186.145	-7.96012	39.6924	3.32566	0.0016053	6.92602	0.132825	1	11	0.134071	0.00072025	6.02384e-05	-0.000478978	0.00532038	0.000743955	0.00537215	7.96012	7.55016e-07
794.238	186.752	25.3893	188.47	-7.74201	40.4519	3.32566	0.00166287	7.89258	0.143231	1	11	0.134055	0.000711278	6.05338e-05	-0.000238476	0.00525752	0.000714771	0.00530589	7.74201	2.95436e-07
707.509	189.041	24.8751	190.671	-7.49623	41.2145	3.32566	0.001623	9.04322	0.153916	1	11	0.134038	0.00070298	6.11135e-05	-0.000238476	0.00519982	0.000684221	0.00524464	7.49623	5.79627e-07
631.01	191.227	24.2415	192.757	-7.22475	41.9724	3.32566	0.00158722	10.4046	0.164559	1	11	0.134028	0.000695318	6.16058e-05	-0.000398811	0.00514668	0.000652436	0.00518787	7.22475	4.92366e-07
562.339	193.289	23.5122	194.714	-6.93555	42.7289	3.32565	0.00155257	12.0373	0.175518	1	11	0.134018	0.000688285	6.14401e-05	-0.000158308	0.00509817	0.000620156	0.00513575	6.93555	-1.65728e-07
501.444	195.209	22.7133	196.526	-6.63675	43.4862	3.32565	0.00157996	13.9739	0.186655	1	11	0.134009	0.000681889	6.23304e-05	-0.000318643	0.0050543	0.000588088	0.00508839	6.63675	8.90361e-07
446.859	197.022	21.881	198.234	-6.3372	44.2419	3.32566	0.00160064	16.2773	0.198317	1	11	0.13401	0.000676019	6.21526e-05	-0.000398811	0.00501373	0.000556815	0.00504455	6.3372	-1.77826e-07
398.089	198.646	21.0157	199.754	-6.03913	45.0047	3.32565	0.00160455	19.0238	0.210567	1	11	0.133991	0.000670779	6.24896e-05	0.000162361	0.00497837	0.000526686	0.00500615	6.03913	3.36959e-07
354.66	200.193	20.154	201.205	-5.74877	45.7649	3.32566	0.00158256	22.2663	0.223406	1	11	0.133993	0.000665956	6.31829e-05	-0.000398811	0.00494507	0.000497835	0.00497007	5.74877	6.93337e-07
316.316	201.556	19.3355	202.481	-5.47967	46.5219	3.32565	0.00156095	26.0222	0.237292	1	11	0.133986	0.000661718	6.30385e-05	-0.000398811	0.00491615	0.000471612	0.00493872	5.47967	-1.44413e-07
281.894	202.804	18.5456	203.65	-5.22494	47.2774	3.32565	0.00159691	30.4434	0.252468	1	11	0.133975	0.000657869	6.35629e-05	-7.81411e-05	0.00488998	0.000447169	0.00491039	5.22494	5.24415e-07
251.044	203.985	17.7982	204.76	-4.98658	48.0339	3.32566	0.00156896	35.62	0.269127	1	11	0.133974	0.000654299	6.32224e-05	-0.000158308	0.00486529	0.000424509	0.00488377	4.98658	-3.40487e-07
223.925	205.038	17.13	205.752	-4.77572	48.7967	3.32565	0.00159523	41.4916	0.287599	1	11	0.13397	0.000651122	6.29386e-05	-0.000318643	0.00484335	0.000404641	0.00486022	4.77572	-2.83874e-07
199.553	206.024	16.5266	206.686	-4.58627	49.5562	3.32566	0.00157586	48.2589	0.308549	1	11	0.133967	0.000648169	6.35895e-05	-0.000158308	0.00482277	0.000386868	0.00483826	4.58627	6.50903e-07
177.781	206.947	15.995	207.564	-4.41963	50.3243	3.32565	0.001563	55.9691	0.332364	1	11	0.133963	0.000645404	6.41487e-05	-0.000158308	0.00480345	0.000371261	0.00481778	4.41963	5.5923e-07
158.428	207.79	15.552	208.371	-4.28029	51.0907	3.32566	0.00161256	64.5955	0.359829	1	11	0.133956	0.000642871	6.43211e-05	-0.000238476	0.00478574	0.000358186	0.00479912	4.28029	1.72427e-07
141.311	208.609	15.2147	209.163	-4.17144	51.8429	3.32566	0.0015766	74.0252	0.391686	1	11	0.133959	0.000640456	6.42789e-05	-0.000398811	0.0047683	0.000347772	0.00478097	4.17144	-4.22079e-08
125.846	209.398	14.9527	209.931	-4.08446	52.5984	3.32565	0.00151586	84.5787	0.429092	1	11	0.133957	0.0006381	6.51521e-05	-0.000238476	0.00475138	0.000339288	0.00476347	4.08446	8.73206e-07
112.19	210.168	14.7572	210.685	-4.0165	53.3439	3.32565	0.00156225	96.1307	0.47163	1	11	0.133957	0.000635816	6.62101e-05	-7.81411e-05	0.00473476	0.000332457	0.00474642	4.0165	1.05798e-06
100.032	210.898	14.6596	211.407	-3.97626	54.1037	3.32565	0.00149816	108.532	0.521874	1	11	0.133951	0.000633617	6.65872e-05	-0.000398811	0.00471883	0.000328008	0.00473022	3.97626	3.77137e-07
89.116	211.653	14.6366	212.159	-3.95592	54.8708	3.32565	0.00156523	122.018	0.580742	1	11	0.133955	0.000631392	6.6442e-05	-0.000238476	0.00470223	0.000325176	0.00471346	3.95592	-1.45191e-07
79.4155	212.421	14.6956	212.929	-3.95749	55.6353	3.32566	0.00158088	136.373	0.649579	1	11	0.133958	0.000629121	6.73901e-05	-0.000959982	0.0046852	0.000324128	0.0046964	3.95749	9.48051e-07
70.8387	213.174	14.8375	213.69	-3.98153	56.3864	3.32566	0.00153579	151.422	0.730034	1	11	0.133954	0.000626861	6.73548e-05	-7.81411e-05	0.00466839	0.000324933	0.00467968	3.98153	-3.53186e-08
63.0823	213.963	15.0323	214.49	-4.01881	57.1668	3.32567	0.00157865	167.836	0.824372	1	11	0.133953	0.000624516	6.76948e-05	-0.000318643	0.00465075	0.000326746	0.00466221	4.01881	3.40016e-07
56.2418	214.74	15.3246	215.286	-4.08192	57.9113	3.32566	0.00159616	184.659	0.935665	1	11	0.133954	0.000622215	6.76065e-05	-7.81411e-05	0.00463321	0.000330643	0.00464499	4.08192	-8.83341e-08
50.1444	215.582	15.6706	216.15	-4.15751	58.6682	3.32565	0.00149201	202.541	1.06456	1	11	0.133955	0.000619731	6.75463e-05	-0.000158308	0.00461424	0.000335408	0.00462641	4.15751	-6.01544e-08
44.6712	216.436	16.1189	217.036	-4.2592	59.4322	3.32565	0.00159784	221.032	1.21918	1	11	0.13395	0.00061718	6.78659e-05	-0.000238476	0.00459481	0.000342196	0.00460754	4.2592	3.19545e-07
39.8089	217.322	16.6338	217.957	-4.37687	60.1947	3.32566	0.00161218	240.353	1.39987	1	11	0.133952	0.00061458	6.87809e-05	-0.000238476	0.00457467	0.000350144	0.00458805	4.37687	9.15092e-07
35.4653	218.282	17.2082	218.959	-4.50757	60.9452	3.32566	0.00156393	260.785	1.61074	1	11	0.13395	0.00061176	6.84379e-05	-0.000158308	0.00455294	0.00035893	0.00456707	4.50757	-3.43067e-07
31.6296	219.255	17.8615	219.982	-4.65728	61.6695	3.32565	0.00160194	281.714	1.85726	1	11	0.133951	0.000608919	6.80407e-05	-0.000318643	0.00453082	0.000369101	0.00454583	4.65728	-3.97198e-07
28.1701	220.306	18.5611	221.086	-4.81589	62.4748	3.32566	0.00160753	304.388	2.14542	1	11	0.133948	0.000605861	6.83811e-05	-7.81411e-05	0.00450715	0.000379735	0.00452312	4.81589	3.40442e-07
25.1044	221.42	19.3655	222.265	-4.99839	63.2309	3.32566	0.00159299	327.372	2.48516	1	11	0.133953	0.000602674	6.89702e-05	-0.000158308	0.00448202	0.000391999	0.00449913	4.99839	5.89073e-07
22.3854	222.574	20.2066	223.489	-5.18743	63.9174	3.32565	0.00144449	351.854	2.87631	1	11	0.133952	0.000599368	6.95504e-05	-0.000559145	0.00445616	0.000404557	0.00447449	5.18743	5.80182e-07
19.9553	223.797	21.1292	224.793	-5.39343	64.6782	3.32566	0.00154418	377.467	3.33488	1	11	0.133949	0.00059588	7.07584e-05	-0.000478978	0.00442885	0.000418137	0.00444854	5.39343	1.20804e-06
17.7961	225.062	22.1057	226.145	-5.60962	65.5225	3.32563	0.00154567	404.568	3.86568	1	11	0.13395	0.00059232	7.11287e-05	-0.000398811	0.00440077	0.000432246	0.00442195	5.60962	3.70255e-07
15.8576	226.421	23.1789	227.605	-5.84505	66.2449	3.32565	0.00171932	433.002	4.4907	1	11	0.133953	0.000588532	6.88509e-05	-0.000238476	0.00437074	0.000447436	0.00439358	5.84505	-2.27774e-06
14.119	227.883	24.3163	229.177	-6.09072	67.0473	3.32567	0.00154902	463.574	5.21884	1	11	0.13395	0.000584482	7.01758e-05	2.02625e-06	0.00433881	0.000462975	0.00436345	6.09072	1.3249e-06
12.6008	229.395	25.4958	230.807	-6.34203	67.9379	3.32564	0.00153691	495.397	6.04493	1	11	0.133947	0.000580341	7.24105e-05	2.02625e-06	0.0043061	0.000478596	0.00433262	6.34203	2.23467e-06
11.2249	231.053	26.7806	232.6	-6.61146	68.6219	3.32564	0.00169845	529.443	7.01844	1	11	0.133952	0.000575892	6.91064e-05	-0.000398811	0.00427064	0.000494995	0.00429923	6.61146	-3.30413e-06
10.0032	232.762	28.0859	234.45	-6.88025	69.3827	3.32564	0.00142996	566.491	8.12958	1	11	0.133938	0.000571287	7.09348e-05	-0.000238476	0.00423458	0.00051096	0.0042653	6.88025	1.82841e-06
8.91838	234.561	29.5226	236.412	-7.17372	70.227	3.32563	0.00146415	604.476	9.42653	1	11	0.133949	0.000566594	7.17966e-05	-0.000559145	0.0041968	0.000528223	0.00422991	7.17372	8.6179e-07
7.93953	236.477	31.0123	238.502	-7.47129	71.1657	3.32563	0.00152089	646.385	10.9288	1	11	0.133946	0.000561615	7.2065e-05	-0.000478978	0.00415724	0.000545192	0.00419283	7.47129	2.68399e-07
7.07654	238.482	32.5778	240.697	-7.77874	71.724	3.32562	0.00139251	690.362	12.6468	1	11	0.133947	0.000556496	7.30937e-05	2.02625e-06	0.00411637	0.000562316	0.0041546	7.77874	1.02878e-06
6.31058	240.629	34.1302	243.037	-8.07285	72.3442	3.32561	0.00188477	738.944	14.5728	1	11	0.13394	0.000551111	7.55108e-05	-0.000238476	0.00407382	0.000577821	0.00411459	8.07285	2.4171e-06
5.6205	242.834	35.8341	245.464	-8.39434	73.0307	3.32564	0.00245305	790.221	16.8409	1	11	0.133945	0.000545681	7.70654e-05	-0.000158308	0.00403027	0.000594732	0.00407392	8.39434	1.55459e-06
5.01444	245.027	37.6089	247.896	-8.72616	73.7882	3.32565	0.00292966	843.932	19.4244	1	11	0.13395	0.000540347	7.36238e-05	-0.000478978	0.00398725	0.000611998	0.00403394	8.72616	-3.44168e-06
4.46939	247.589	39.5756	250.732	-9.08155	74.6295	3.32563	0.00189688	899.796	22.4171	1	11	0.133944	0.000534213	6.78014e-05	-0.000318643	0.00393832	0.000629516	0.00398832	9.08155	-5.82231e-06
3.97785	250.156	41.4505	253.567	-9.40834	75.5662	3.32564	0.00105816	965.253	25.7938	1	11	0.133953	0.000528275	7.28496e-05	-0.000478978	0.00389068	0.000644679	0.00394373	9.40834	5.04812e-06
3.55114	252.907	43.572	256.633	-9.77523	76.6074	3.32565	0.00162672	1028.6	29.6508	1	11	0.133943	0.000521924	8.09575e-05	-7.81411e-05	0.00384005	0.000661582	0.00389662	9.77523	8.10796e-06
3.1604	255.753	45.66	259.797	-10.1225	77.7682	3.32565	0.00211124	1102.92	34.068	1	11	0.133949	0.000515591	7.04298e-05	-0.000398811	0.00378924	0.0006765	0.00384916	10.1225	-1.05277e-05
2.81836	258.84	47.8751	263.231	-10.479	79.0626	3.32565	0.00152413	1179.54	39.0175	1	11	0.13395	0.000508871	7.25443e-05	-0.00071948	0.00373559	0.000690933	0.00379895	10.479	2.11444e-06
2.51367	261.97	50.2797	266.752	-10.8646	80.5067	3.32565	0.00150283	1259.27	44.7393	1	11	0.133949	0.00050215	8.44883e-05	-0.000318643	0.00368161	0.000706607	0.0037488	10.8646	1.1944e-05
2.23982	265.258	52.6644	270.435	-11.2295	82.6164	3.32565	0.000538505	1349.24	51.1679	1	12	0.13395	0.000495311	7.06524e-05	-0.000478978	0.00362695	0.000720097	0.00369774	11.2295	-1.38359e-05
1.99706	268.768	55.2108	274.38	-11.6083	84.4196	3.32565	5.59578e-05	1443.46	58.4451	1	12	0.133949	0.000488187	7.39777e-05	-0.000158308	0.00357003	0.000733363	0.00364458	11.6083	3.32528e-06
1.77961	272.43	57.9263	278.521	-12.0039	86.4379	3.32566	0.000233997	1543.9	66.7814	1	12	0.133951	0.000480936	8.41013e-05	0.000242528	0.00351189	0.000746725	0.0035904	12.0039	1.01236e-05
1.58469	276.216	60.803	282.829	-12.4144	88.6971	3.32566	0.000394182	1651.78	76.3403	1	12	0.133948	0.000473601	6.27965e-05	-0.000238476	0.00345303	0.000760111	0.0035357	12.4144	-2.13048e-05
1.41224	280.176	63.7222	287.331	-12.8132	91.2261	3.32566	-0.000233787	1768.57	86.9838	1	12	0.133948	0.000466179	9.06601e-05	-0.000318643	0.00339364	0.000771838	0.00348031	12.8132	2.78637e-05
1.25967	284.376	66.7266	292.1	-13.2051	94.0539	3.32566	0.00058829	1893.49	98.8093	1	12	0.133947	0.000458565	6.24016e-05	-0.00071948	0.00333296	0.000782053	0.00342348	13.2051	-2.82585e-05
1.12249	288.862	69.9462	297.209	-13.6118	97.2211	3.32566	-0.000245593	2027.1	112.274	1	12	0.133949	0.000450691	8.66254e-05	-7.81411e-05	0.00327013	0.000791842	0.00336463	13.6118	2.42237e-05
1.00006	293.57	73.3394	302.592	-14.0265	100.77	3.32566	0.000514309	2169.98	127.472	1	12	0.133948	0.000442669	7.08141e-05	2.02625e-06	0.00320625	0.000800983	0.00330478	14.0265	-1.58112e-05