File: utils/DE_206_12_30.mpt
EC-Lab ASCII FILE
Nb header lines : 60

Potentio Electrochemical Impedance Spectroscopy

Run on channel : 12 (SN 41430)
User :
CE vs. WE compliance from -10 V to 10 V
Electrode connection : standard
Ewe ctrl range : min = -5.00 V, max = 5.00 V
Acquisition started on : 12/03/2020 16:52:47
Technique started on : 12/03/2020 16:52:48
Saved on :
	File : DE_206_12_30.mpr
	Directory : P:\Chemistry\Data\VMP3\Kyler\DOE\DE_206\
	Host : 10.0.4.64
Device : VMP3 (SN 1432)
Address : USB
EC-Lab for windows v11.33 (software)
Internet server v11.32 (firmware)
Command interpretor v11.33 (firmware)
Electrode material :
Initial state :
Electrolyte :
Comments :
Electrode surface area : 0.001 cm²
Characteristic mass : 0.001 g
Equivalent Weight : 0.000 g/eq.
Density : 0.000 g/cm3
Record Analogic IN 1
Cycle Definition : Charge/Discharge alternance
Mode                Single sine
E (V)               0.0000
vs.                 Eoc
tE (h:m:s)          0:00:0.0000
record              0
dI                  1.000
unit dI             mA
dt (s)              0.000
fi                  1.000
unit fi             MHz
ff                  1.000
unit ff             Hz
Nd                  20
Points              per decade
spacing             Logarithmic
Va (mV)             128.0
pw                  0.50
Na                  3
corr                0
E range min (V)     -5.000
E range max (V)     5.000
I Range             Auto
Bandwidth           5
nc cycles           0
goto Ns'            0
nr cycles           0
inc. cycle          1

freq/Hz	Re(Z)/Ohm	-Im(Z)/Ohm	|Z|/Ohm	Phase(Z)/deg	time/s	<Ewe>/V	<I>/mA	Cs/µF	Cp/µF	cycle number	I Range	|Ewe|/V	|I|/A	(Q-Qo)/mA.h	Analog IN 1/V	Re(Y)/Ohm-1	Im(Y)/Ohm-1	|Y|/Ohm-1	Phase(Y)/deg	dq/mA.h
1.00002e+06	215.203	-820.336	848.094	75.3005	1.40548	3.3162	0.00282742	-0.000194008	-0.000181516	1	12	0.000709305	8.36352e-07	6.81984e-07	-0.000391148	0.000299199	-0.00114052	0.00117911	-75.3005	6.81984e-07
891247	90.1606	35.0147	96.7211	-21.2241	2.30449	3.3156	0.0024618	0.00510002	0.000668391	1	11	0.000759599	7.8535e-06	1.08057e-06	-0.000631544	0.00963773	0.0037429	0.010339	21.2241	3.98582e-07
794333	93.2335	33.5465	99.0851	-19.7893	2.9005	3.3153	0.00172371	0.0059727	0.000684618	1	11	0.00188408	1.90147e-05	1.37471e-06	-0.000150752	0.00949633	0.00341689	0.0100923	19.7893	2.9414e-07
707950	97.2758	32.5532	102.578	-18.5027	3.49548	3.31514	0.00136593	0.00690597	0.000695505	1	11	0.00361639	3.5255e-05	1.41222e-06	-0.000311016	0.00924474	0.00309373	0.00974866	18.5027	3.75097e-08
630957	100.694	31.8089	105.599	-17.5312	4.09149	3.31505	0.00120986	0.00792996	0.000719534	1	11	0.00604369	5.72325e-05	1.6186e-06	-0.000391148	0.00902996	0.00285253	0.0094698	17.5312	2.06388e-07
562342	103.846	31.028	108.383	-16.6355	4.68649	3.31497	0.00103348	0.00912149	0.000747573	1	11	0.00922579	8.51224e-05	1.8347e-06	-0.000150752	0.0088404	0.0026414	0.00922657	16.6355	2.16099e-07
501206	106.993	30.2222	111.179	-15.7734	5.28349	3.31494	0.00103013	0.010507	0.000776396	1	11	0.0132567	0.000119238	2.14e-06	-0.000311016	0.0086558	0.002445	0.00899449	15.7734	3.05296e-07
446686	109.777	29.3466	113.632	-14.9669	5.87948	3.31492	0.000997351	0.0121412	0.000809801	1	11	0.0180954	0.000159246	2.65631e-06	-0.000150752	0.00850182	0.0022728	0.00880037	14.9669	5.16307e-07
398103	112.388	28.398	115.92	-14.1806	6.47547	3.31487	0.000913355	0.0140778	0.000844877	1	11	0.0238289	0.000205562	3.04015e-06	-0.000551412	0.00836375	0.00211334	0.00862662	14.1806	3.83847e-07
354810	114.733	27.4876	117.98	-13.4729	7.07049	3.31486	0.000961595	0.0163188	0.000885817	1	11	0.0304065	0.000257726	3.62063e-06	-0.000631544	0.00824276	0.00197479	0.00847601	13.4729	5.80475e-07
316230	116.957	26.5496	119.933	-12.7895	7.66547	3.3148	0.000780007	0.0189566	0.000928961	1	11	0.0379627	0.000316532	2.98776e-06	-0.000391148	0.00813112	0.00184578	0.00833799	12.7895	-6.32872e-07
281835	119.012	25.5941	121.733	-12.1369	8.26048	3.31474	0.000651311	0.0220641	0.000975329	1	11	0.0465061	0.000382035	2.17669e-06	-0.000150752	0.00803111	0.00172713	0.00821473	12.1369	-8.11066e-07
251188	120.919	24.6055	123.397	-11.5019	8.85648	3.3147	0.000633245	0.0257507	0.00102387	1	11	0.0561192	0.000454786	2.64432e-06	-0.000391148	0.00794118	0.00161593	0.00810392	11.5019	4.67625e-07
223872	122.692	23.6368	124.949	-10.9045	9.45148	3.31463	0.000349222	0.0300768	0.00107633	1	11	0.0667378	0.000534122	2.75354e-06	-0.000551412	0.00785878	0.001514	0.00800329	10.9045	1.0922e-07
199544	124.364	22.6936	126.417	-10.3414	10.0485	3.31467	0.000812235	0.0351462	0.00113259	1	11	0.0784025	0.000620188	2.95787e-06	-0.000391148	0.00778181	0.00142001	0.00791031	10.3414	2.04331e-07
177832	125.938	21.784	127.808	-9.81359	10.6445	3.31467	0.000763628	0.0410841	0.00119353	1	11	0.0910916	0.000712723	3.02836e-06	8.96435e-05	0.00770976	0.00133359	0.00782425	9.81359	7.04946e-08
158486	127.417	20.9034	129.12	-9.31666	11.2405	3.31462	0.0005731	0.0480411	0.00125909	1	11	0.104747	0.000811236	2.35859e-06	-0.000391148	0.00764256	0.0012538	0.00774472	9.31666	-6.69776e-07
141256	128.803	20.05	130.354	-8.84789	11.7005	3.31464	0.000785796	0.056195	0.00132947	1	11	0.119429	0.000916185	1.95537e-06	-0.000551412	0.0075801	0.00117995	0.00767139	8.84789	-4.03214e-07
125909	130.13	19.2278	131.543	-8.40516	12.1605	3.31463	0.000805352	0.0657403	0.00140463	1	11	0.135179	0.00102765	2.60564e-06	-0.000150752	0.00752045	0.00111122	0.0076021	8.40516	6.50272e-07
112205	131.388	18.4439	132.677	-7.99078	12.7565	3.31464	0.000530077	0.0769053	0.00148618	1	11	0.129974	0.00097963	1.83285e-06	-0.00047128	0.00746395	0.00104776	0.00753713	7.99078	-7.72797e-07
100004	132.578	17.6802	133.752	-7.59597	13.3525	3.31476	0.00110819	0.0900152	0.00157287	1	11	0.129852	0.00097084	1.75104e-06	-0.000791807	0.00741092	0.000988298	0.00747653	7.59597	-8.18046e-08
89129.3	133.69	16.9548	134.761	-7.22774	13.9485	3.3148	0.00121845	0.105319	0.0016671	1	11	0.129725	0.000962631	1.3951e-06	-0.000631544	0.00736157	0.000933604	0.00742054	7.22774	-3.55947e-07
79433.3	134.752	16.2715	135.731	-6.88521	14.5435	3.31486	0.0013924	0.123137	0.00176965	1	11	0.129581	0.00095469	1.60163e-06	-0.000391148	0.00731439	0.000883223	0.00736752	6.88521	2.06534e-07
70795	135.745	15.617	136.64	-6.56285	15.1395	3.31486	0.00120895	0.143953	0.00188044	1	11	0.129501	0.000947751	3.21655e-06	-0.000150752	0.00727054	0.000836453	0.0073185	6.56285	1.61492e-06
63093.8	136.689	15.0057	137.511	-6.26483	15.7355	3.31491	0.00142797	0.168103	0.00200179	1	11	0.129486	0.000941643	3.30615e-06	-0.00047128	0.00722874	0.000793569	0.00727217	6.26483	8.95988e-08
56237	137.57	14.4407	138.326	-5.99238	16.3305	3.31492	0.00140804	0.195979	0.00213589	1	11	0.12932	0.000934897	2.18308e-06	-0.000551412	0.0071898	0.000754712	0.00722931	5.99238	-1.12306e-06
50122.5	138.413	13.9184	139.111	-5.74219	16.7905	3.31493	0.00137675	0.228138	0.00228377	1	11	0.140304	0.00100858	1.9399e-06	-0.000150752	0.00715241	0.000719225	0.00718848	5.74219	-2.43183e-07
44666.7	139.209	13.4417	139.857	-5.51524	17.3865	3.31495	0.00145964	0.265083	0.00244863	1	11	0.130373	0.000932192	2.06987e-06	0.000249907	0.00711708	0.000687207	0.00715018	5.51524	1.29964e-07
39814.1	139.958	13.0225	140.562	-5.31581	17.8465	3.31495	0.00127823	0.306966	0.00263474	1	11	0.13952	0.000992583	1.51524e-06	-0.000551412	0.00708368	0.000659105	0.00711428	5.31581	-5.5463e-07
35481	140.671	12.6429	141.238	-5.13568	18.4415	3.31497	0.00143747	0.354796	0.00284293	1	11	0.130021	0.00092058	2.59594e-06	-0.000230884	0.00705181	0.000633784	0.00708023	5.13568	1.0807e-06
31621.1	141.36	12.3165	141.895	-4.97954	18.9015	3.31499	0.00137694	0.408654	0.0030789	1	11	0.1372	0.000966915	3.08095e-06	9.51163e-06	0.00702086	0.00061172	0.00704746	4.97954	4.85014e-07
28188.1	142.021	12.0492	142.531	-4.84944	19.4965	3.31499	0.00133336	0.468592	0.00334885	1	11	0.129588	0.000909193	2.2914e-06	-0.000150752	0.0069909	0.000593118	0.00701602	4.84944	-7.8955e-07
25116.9	142.654	11.8295	143.143	-4.74038	19.9565	3.315	0.00136726	0.535658	0.00365829	1	11	0.134932	0.000942632	1.81083e-06	-0.000311016	0.0069621	0.00057733	0.006986	4.74038	-4.80576e-07
22389	143.261	11.6704	143.736	-4.65715	20.4165	3.31499	0.00131716	0.609117	0.0040155	1	11	0.139635	0.000971471	2.24468e-06	-0.000631544	0.00693425	0.000564879	0.00695722	4.65715	4.33853e-07
19948.8	143.882	11.5733	144.347	-4.59876	21.0115	3.31502	0.0014073	0.689358	0.00443148	1	11	0.129532	0.000897365	1.88803e-06	-0.00047128	0.00690546	0.00055545	0.00692776	4.59876	-3.56645e-07
17786.9	144.469	11.5219	144.928	-4.55989	21.4715	3.31501	0.00129928	0.776596	0.00490842	1	11	0.132643	0.000915234	1.29632e-06	-0.000311016	0.00687814	0.000548556	0.00689998	4.55989	-5.91713e-07
15847.7	145.066	11.5323	145.524	-4.54529	21.9315	3.31502	0.001276	0.870837	0.00546894	1	11	0.135291	0.000929684	7.27391e-07	-0.000631544	0.00685011	0.000544564	0.00687172	4.54529	-5.6893e-07
14121.9	145.674	11.6033	146.135	-4.55416	22.3915	3.31501	0.00130859	0.971281	0.00612352	1	11	0.137494	0.000940869	1.22046e-06	-0.000391148	0.00682137	0.000543342	0.00684298	4.55416	4.93064e-07
12590.9	146.28	11.7246	146.749	-4.58258	22.8515	3.31501	0.00132647	1.07811	0.00688196	1	11	0.139285	0.000949139	6.29638e-07	-7.06203e-05	0.00679258	0.00054444	0.00681437	4.58258	-5.90817e-07
11217.7	146.9	11.9231	147.383	-4.64026	23.3105	3.31503	0.00132591	1.18994	0.00778779	1	11	0.140754	0.000955022	1.67477e-06	-0.000150752	0.00676282	0.000548907	0.00678506	4.64026	1.04513e-06
10002.2	147.548	12.162	148.048	-4.7121	23.9065	3.31505	0.00142984	1.30833	0.00882924	1	11	0.129409	0.000874105	5.33953e-07	-0.000631544	0.00673174	0.000554881	0.00675457	4.7121	-1.14081e-06
8914.93	148.216	12.4592	148.739	-4.80504	24.3889	3.31507	0.00153842	1.43289	0.0100541	1	11	0.13027	0.000875828	1.30748e-06	-0.00047128	0.00669957	0.000563172	0.0067232	4.80504	7.73525e-07
7944	148.916	12.8298	149.467	-4.92414	24.915	3.31508	0.00153227	1.56157	0.0115056	1	11	0.130946	0.000876087	1.02005e-06	-0.000230884	0.00666574	0.000574284	0.00669043	4.92414	-2.87425e-07
7082.23	149.654	13.2501	150.239	-5.05967	25.4919	3.31509	0.00149726	1.69602	0.0131917	1	11	0.131486	0.000875176	4.7959e-07	9.51163e-06	0.00663012	0.000587018	0.00665605	5.05967	-5.40464e-07
6307.73	150.459	13.7238	151.083	-5.21172	26.1255	3.3151	0.00143598	1.83853	0.0151701	1	11	0.131922	0.000873175	1.20143e-06	9.51163e-06	0.0065915	0.000601233	0.00661887	5.21172	7.21839e-07
5621.06	151.303	14.252	151.973	-5.3811	26.8263	3.31511	0.00146932	1.98667	0.0174721	1	11	0.132252	0.000870236	2.01922e-06	-0.000551412	0.00655113	0.000617083	0.00658013	5.3811	8.17787e-07
5011.6	152.205	14.8194	152.925	-5.56105	27.5867	3.31511	0.00147807	2.14295	0.0201241	1	11	0.132508	0.000866489	2.9781e-06	9.51163e-06	0.00650838	0.000633686	0.00653915	5.56105	9.58888e-07
4466.43	153.188	15.4244	153.963	-5.74967	28.3457	3.31511	0.00142406	2.31021	0.0231865	1	11	0.132703	0.000861914	2.61648e-06	-0.000230884	0.00646239	0.000650691	0.00649507	5.74967	-3.61624e-07
3981.27	154.24	16.0769	155.076	-5.95062	29.1057	3.31511	0.00154847	2.48654	0.0267247	1	11	0.132852	0.000856695	3.41423e-06	0.000249907	0.00641373	0.000668522	0.00644847	5.95062	7.97753e-07
3546.6	155.386	16.7527	156.287	-6.1535	29.8659	3.31511	0.00146652	2.67869	0.0307787	1	11	0.132961	0.000850752	3.71351e-06	-0.000311016	0.00636164	0.000685871	0.0063985	6.1535	2.99276e-07
3161.01	156.615	17.4599	157.585	-6.36125	30.6257	3.3151	0.00145796	2.88372	0.0354003	1	11	0.13304	0.000844247	4.00901e-06	9.51163e-06	0.00630672	0.000703093	0.00634579	6.36125	2.95496e-07
2817.3	157.927	18.1588	158.967	-6.5592	31.386	3.31511	0.00142536	3.111	0.0405938	1	11	0.133095	0.000837245	5.07549e-06	-0.000551412	0.00624943	0.000718574	0.0062906	6.5592	1.06649e-06
2510.8	159.357	18.8643	160.47	-6.75112	32.1457	3.31511	0.00142667	3.36021	0.0464367	1	11	0.133137	0.000829667	5.50277e-06	-7.06203e-05	0.00618849	0.000732578	0.0062317	6.75112	4.27282e-07
2237.85	160.86	19.5449	162.043	-6.92761	32.9059	3.31511	0.00137266	3.63878	0.0529371	1	11	0.133155	0.000821724	5.33651e-06	-0.00047128	0.00612614	0.000744341	0.0061712	6.92761	-1.66266e-07
1995.64	162.471	20.1918	163.721	-7.08435	33.6657	3.31509	0.00132069	3.94969	0.0600764	1	11	0.133172	0.000813411	6.26568e-06	-0.000551412	0.00606132	0.000753296	0.00610795	7.08435	9.29173e-07
1778.29	164.17	20.8044	165.483	-7.2223	34.4259	3.31511	0.0013274	4.30191	0.0679932	1	11	0.133168	0.000804726	5.88183e-06	-7.06203e-05	0.00599497	0.000759712	0.00604292	7.2223	-3.83851e-07
1585.51	165.965	21.3478	167.332	-7.32961	35.1857	3.31511	0.00131604	4.70217	0.0765323	1	11	0.133176	0.000795878	5.76595e-06	-7.06203e-05	0.0059273	0.000762418	0.00597613	7.32961	-1.15884e-07
1411.84	167.846	21.8261	169.259	-7.409	35.9472	3.31511	0.00133876	5.16486	0.0858836	1	11	0.133166	0.000786759	5.51221e-06	-0.000551412	0.00585879	0.000761859	0.00590811	7.409	-2.53732e-07
1258.79	169.773	22.2261	171.222	-7.45856	36.707	3.31511	0.00129816	5.68856	0.0958544	1	11	0.133158	0.000777695	5.17421e-06	-0.000711676	0.00579096	0.000758134	0.00584038	7.45856	-3.38001e-07
1121.79	171.769	22.5204	173.239	-7.46935	37.4654	3.31511	0.00134341	6.29986	0.106461	1	11	0.133149	0.000768584	5.80944e-06	-0.000311016	0.00572339	0.000750384	0.00577237	7.46935	6.35222e-07
1000.32	173.773	22.7157	175.252	-7.44748	38.2247	3.31512	0.00141084	7.00416	0.117674	1	11	0.133131	0.000759653	5.54755e-06	-7.06203e-05	0.00565794	0.000739607	0.00570608	7.44748	-2.61882e-07
891.427	175.809	22.8205	177.284	-7.39582	38.9824	3.31511	0.00135999	7.82364	0.129635	1	11	0.13312	0.000750886	5.17975e-06	-7.06203e-05	0.00559376	0.000726087	0.00564068	7.39582	-3.67806e-07
794.238	177.854	22.8121	179.311	-7.30904	39.7419	3.31511	0.0012989	8.78424	0.142175	1	11	0.133112	0.000742351	5.91584e-06	-0.000311016	0.0055316	0.000709501	0.00557691	7.30904	7.36097e-07
707.509	179.893	22.6967	181.319	-7.19087	40.5045	3.31512	0.00132032	9.91119	0.155297	1	11	0.133101	0.000734072	5.55419e-06	-0.000230884	0.00547175	0.000690357	0.00551513	7.19087	-3.61654e-07
631.01	181.852	22.4878	183.237	-7.04939	41.2624	3.31512	0.00129201	11.216	0.168928	1	11	0.133087	0.000726309	5.30213e-06	8.96435e-05	0.00541615	0.000669758	0.0054574	7.04939	-2.52061e-07
562.339	183.782	22.1955	185.117	-6.88631	42.0189	3.31511	0.00133987	12.7514	0.183313	1	11	0.133082	0.000718906	5.64063e-06	-0.000230884	0.00536302	0.000647697	0.00540199	6.88631	3.38496e-07
501.444	185.637	21.8277	186.916	-6.70618	42.7762	3.31512	0.00129499	14.5409	0.198295	1	11	0.133074	0.000711947	5.43384e-06	0.000169775	0.00531339	0.00062476	0.00534999	6.70618	-2.06784e-07
446.859	187.42	21.4012	188.638	-6.51429	43.5329	3.31511	0.00130896	16.6422	0.214205	1	11	0.13306	0.000705371	6.14094e-06	-0.000311016	0.00526693	0.000601422	0.00530116	6.51429	7.07098e-07
398.089	189.13	20.9212	190.283	-6.31231	44.2957	3.31511	0.00123204	19.1096	0.231007	1	11	0.133053	0.000699238	6.78121e-06	-0.000391148	0.00522346	0.000577811	0.00525532	6.31231	6.40267e-07
354.66	190.748	20.4196	191.838	-6.11023	45.0559	3.31511	0.00127525	21.9767	0.248992	1	11	0.133047	0.000693539	6.94762e-06	-0.00047128	0.00518311	0.000554851	0.00521272	6.11023	1.66418e-07
316.316	192.258	19.911	193.286	-5.91271	45.8129	3.31511	0.00127618	25.2701	0.268159	1	11	0.133042	0.000688317	7.45468e-06	-0.000311016	0.00514616	0.000532958	0.00517368	5.91271	5.07059e-07
281.894	193.68	19.4002	194.649	-5.72003	46.5684	3.31511	0.00122943	29.1023	0.289091	1	11	0.133038	0.000683475	7.26127e-06	-0.000551412	0.00511186	0.000512037	0.00513744	5.72003	-1.93409e-07
251.044	195.055	18.904	195.968	-5.53563	47.3249	3.31511	0.00127841	33.5363	0.31207	1	11	0.133033	0.00067885	6.93896e-06	-0.000311016	0.00507906	0.000492246	0.00510286	5.53563	-3.22315e-07
223.925	196.327	18.4627	197.193	-5.37233	48.0877	3.31511	0.00123278	38.4966	0.337466	1	11	0.133029	0.000674612	6.74978e-06	9.51163e-06	0.0050489	0.000474802	0.00507118	5.37233	-1.89183e-07
199.553	197.555	18.0292	198.376	-5.21448	48.8492	3.31511	0.00124377	44.2369	0.365395	1	11	0.13303	0.000670596	7.56908e-06	-0.000391148	0.00502008	0.000458142	0.00504094	5.21448	8.19309e-07
177.781	198.711	17.6523	199.493	-5.07649	49.6173	3.31512	0.00120298	50.7147	0.397081	1	11	0.133024	0.000666812	8.49853e-06	-7.06203e-05	0.00499304	0.000443552	0.00501271	5.07649	9.29443e-07
158.428	199.817	17.3152	200.566	-4.95259	50.3837	3.31511	0.00127226	58.0177	0.432412	1	11	0.133023	0.000663235	8.28121e-06	-0.000150752	0.00496727	0.000430438	0.00498588	4.95259	-2.17322e-07
141.311	200.901	17.0398	201.623	-4.84804	51.1369	3.31511	0.00123874	66.0965	0.472094	1	11	0.133028	0.000659788	9.12451e-06	9.51163e-06	0.00494201	0.000419165	0.00495976	4.84804	8.43302e-07
125.846	201.945	16.8073	202.643	-4.7576	51.8924	3.31511	0.00130448	75.246	0.517626	1	11	0.133018	0.000656415	8.89645e-06	-0.000150752	0.00491778	0.000409293	0.00493478	4.7576	-2.2806e-07
112.19	202.962	16.6224	203.641	-4.68203	52.6378	3.31512	0.00130597	85.3439	0.568628	1	11	0.133018	0.000653199	8.68638e-06	-0.000311016	0.00489421	0.000400832	0.0049106	4.68203	-2.10062e-07
100.032	203.957	16.5087	204.624	-4.62753	53.3977	3.3151	0.00117672	96.376	0.627305	1	11	0.133015	0.000650043	9.23114e-06	-0.000311016	0.00487107	0.000394273	0.004887	4.62753	5.44756e-07
89.116	204.953	16.4126	205.609	-4.57846	54.1637	3.31511	0.00126574	108.815	0.693355	1	11	0.133018	0.000646946	9.78302e-06	-7.06203e-05	0.00484807	0.000388232	0.00486359	4.57846	5.51884e-07
79.4155	205.939	16.4026	206.591	-4.55389	54.9282	3.3151	0.00131622	122.18	0.770205	1	11	0.133022	0.000643892	9.52959e-06	-0.000150752	0.00482521	0.000384319	0.00484049	4.55389	-2.53439e-07
70.8387	206.9	16.428	207.551	-4.5398	55.6794	3.3151	0.00123725	136.762	0.856809	1	11	0.133017	0.000640886	9.90558e-06	-0.000311016	0.00480297	0.00038136	0.00481809	4.5398	3.75991e-07
63.0823	207.865	16.5134	208.52	-4.5422	56.4598	3.31511	0.00127208	152.784	0.958195	1	11	0.133013	0.000637893	1.05291e-05	-0.000150752	0.00478065	0.000379788	0.00479571	4.5422	6.23474e-07
56.2418	208.839	16.6498	209.502	-4.55828	57.2033	3.31511	0.00133503	169.962	1.07348	1	11	0.133015	0.000634912	1.05007e-05	-0.000551412	0.00475813	0.000379343	0.00477323	4.55828	-2.83796e-08
50.1444	209.807	16.8416	210.482	-4.58941	57.9602	3.31511	0.00138513	188.457	1.20657	1	11	0.133011	0.000631934	1.04732e-05	-0.000551412	0.00473577	0.00038015	0.00475101	4.58941	-2.74663e-08
44.6712	210.795	17.081	211.486	-4.63263	58.7242	3.3151	0.00128679	208.583	1.36064	1	11	0.133013	0.000628943	1.1048e-05	8.96435e-05	0.004713	0.0003819	0.00472844	4.63263	5.74813e-07
39.8089	211.798	17.3909	212.511	-4.69408	59.4867	3.3151	0.00133521	229.888	1.53958	1	11	0.133009	0.000625895	1.0819e-05	9.51163e-06	0.00468986	0.000385089	0.00470565	4.69408	-2.29038e-07
35.4653	212.804	17.7862	213.546	-4.77768	60.2371	3.3151	0.00125866	252.31	1.75032	1	11	0.133013	0.000622876	1.20458e-05	-0.000631544	0.00466656	0.000390032	0.00468283	4.77768	1.22679e-06
31.6296	213.841	18.205	214.615	-4.86605	60.9614	3.31511	0.00137451	276.399	1.98884	1	11	0.133009	0.000619758	1.20798e-05	-0.000311016	0.00464272	0.00039525	0.00465951	4.86605	3.40671e-08
28.1701	214.908	18.7164	215.722	-4.97733	61.7668	3.3151	0.00133819	301.864	2.2723	1	11	0.133012	0.000616592	1.07337e-05	9.51163e-06	0.00461812	0.000402191	0.0046356	4.97733	-1.3461e-06
25.1044	215.977	19.2947	216.837	-5.10506	62.5229	3.31511	0.00124041	328.573	2.60159	1	11	0.133013	0.000613421	1.07008e-05	-0.000230884	0.00459346	0.000410364	0.00461175	5.10506	-3.29401e-08
22.3854	217.097	19.9304	218.01	-5.24529	63.2084	3.31511	0.0011702	356.729	2.98139	1	11	0.133012	0.000610118	1.27547e-05	-0.000871939	0.00456774	0.000419338	0.00458695	5.24529	2.05393e-06
19.9553	218.247	20.6633	219.223	-5.40857	63.9702	3.3151	0.00127282	385.978	3.42919	1	11	0.133012	0.000606744	1.30914e-05	-0.000311016	0.00454126	0.000429961	0.00456157	5.40857	3.36636e-07
17.7961	219.452	21.463	220.5	-5.5859	64.8146	3.31509	0.00123166	416.682	3.94793	1	11	0.133011	0.000603224	1.36631e-05	-0.000311016	0.00451362	0.000441443	0.00453516	5.5859	5.71705e-07
15.8576	220.724	22.3507	221.852	-5.78211	65.5369	3.31511	0.00125922	449.048	4.5577	1	11	0.133013	0.000599556	1.16135e-05	-0.000551412	0.00448457	0.000454111	0.0045075	5.78211	-2.04953e-06
14.119	222.039	23.2897	223.257	-5.98787	66.3393	3.31511	0.00120651	484.008	5.26709	1	11	0.133008	0.000595763	1.46367e-05	-0.000311016	0.0044547	0.000467255	0.00447914	5.98787	3.0232e-06
12.6008	223.408	24.3232	224.728	-6.21351	67.2299	3.31509	0.0013002	519.279	6.08313	1	11	0.133006	0.000591853	1.45054e-05	-0.000150752	0.00442368	0.000481621	0.00444982	6.21351	-1.31304e-07
11.2249	224.863	25.445	226.298	-6.45601	67.9139	3.3151	0.00137507	557.233	7.04499	1	11	0.133009	0.000587761	1.48158e-05	9.51163e-06	0.00439093	0.000496868	0.00441895	6.45601	3.10339e-07
10.0032	226.418	26.6366	227.979	-6.70964	68.6737	3.31509	0.00138214	597.314	8.15398	1	11	0.133003	0.000583399	1.12182e-05	-0.000551412	0.00435633	0.000512494	0.00438637	6.70964	-3.59754e-06
8.91838	228.015	27.9562	229.722	-6.98998	69.518	3.31509	0.00106329	638.346	9.45381	1	11	0.133008	0.000578995	1.68525e-05	-0.000551412	0.00432073	0.000529752	0.00435309	6.98998	5.63425e-06
7.93953	229.74	29.3425	231.607	-7.27843	70.4567	3.31509	0.00138112	683.169	10.9653	1	11	0.133009	0.00057429	1.14779e-05	-0.000551412	0.00428288	0.00054701	0.00431767	7.27843	-5.37462e-06
7.07654	231.451	30.8308	233.496	-7.58751	71.015	3.31507	0.000692288	729.481	12.7182	1	11	0.13301	0.000569647	1.19147e-05	-0.000230884	0.00424524	0.000565493	0.00428273	7.58751	4.3681e-07
6.31058	233.33	32.3553	235.563	-7.8947	71.6352	3.31508	0.000104494	779.481	14.7055	1	11	0.133017	0.000564676	1.40376e-05	-0.000150752	0.00420491	0.000583083	0.00424515	7.8947	2.12288e-06
5.6205	235.379	34.0586	237.831	-8.23336	72.3216	3.31509	0.000798449	831.416	17.0504	1	11	0.133012	0.00055927	1.82656e-05	-0.000791807	0.00416134	0.000602131	0.00420467	8.23336	4.22809e-06
5.01444	237.514	35.7272	240.186	-8.55439	73.0792	3.3151	0.00156169	888.38	19.6563	1	11	0.133	0.000553737	2.12139e-05	-0.000150752	0.00411713	0.000619305	0.00416345	8.55439	2.94821e-06
4.46939	239.596	37.6042	242.529	-8.91971	73.9205	3.31509	0.00194656	946.968	22.7657	1	11	0.133008	0.000548423	1.58889e-05	-0.000311016	0.00407335	0.000639306	0.00412322	8.91971	-5.32495e-06
3.97785	242.087	39.6664	245.315	-9.30533	74.8572	3.3151	0.00122188	1008.67	26.3722	1	11	0.133006	0.000542184	1.03683e-05	8.96435e-05	0.00402275	0.000659135	0.00407639	9.30533	-5.52061e-06
3.55114	244.407	41.6512	247.931	-9.67128	75.8984	3.31508	0.000494028	1076.03	30.3682	1	11	0.133008	0.000536473	2.01617e-05	-0.000791807	0.00397606	0.000677589	0.00403338	9.67128	9.79341e-06
3.1604	247.164	43.8408	251.022	-10.0582	77.0603	3.3151	0.00143671	1148.68	35.0375	1	11	0.133006	0.000529857	2.18123e-05	-0.00047128	0.00392248	0.000695752	0.00398371	10.0582	1.65057e-06
2.81836	249.869	46.2408	254.112	-10.4845	78.3557	3.3151	0.00144598	1221.23	40.4389	1	11	0.133006	0.000523417	9.21512e-06	-7.06203e-05	0.00386957	0.000716103	0.00393527	10.4845	-1.25972e-05
2.51367	252.684	48.5607	257.308	-10.8784	79.7997	3.3151	0.000774437	1303.85	46.4398	1	11	0.133007	0.000516919	2.4144e-05	-0.000391148	0.00381656	0.000733464	0.0038864	10.8784	1.49289e-05
2.23982	255.851	51.089	260.902	-11.2925	81.4144	3.3151	0.0015839	1390.85	53.3311	1	11	0.133008	0.000509801	1.95406e-05	9.51163e-06	0.00375866	0.00075054	0.00383286	11.2925	-4.60337e-06
1.99706	259.114	53.8435	264.649	-11.7389	83.2177	3.3151	0.00113881	1480.12	61.2661	1	11	0.133009	0.000502586	1.15931e-05	-7.06203e-05	0.00369955	0.000768761	0.00377858	11.7389	-7.94754e-06
1.77961	262.509	56.6764	268.557	-12.1833	85.8459	3.31511	-4.53455e-05	1577.95	70.2786	1	12	0.13301	0.000495276	3.01136e-05	-7.06203e-05	0.00363974	0.00078583	0.0037236	12.1833	1.85205e-05
1.58469	266.053	59.6294	272.654	-12.6327	88.105	3.31511	0.000679254	1684.29	80.5591	1	12	0.133009	0.000487831	8.8614e-06	-0.000230884	0.00357887	0.000802117	0.00366766	12.6327	-2.12522e-05
1.41224	269.903	62.7631	277.105	-13.0909	90.6341	3.31511	-0.000139592	1795.59	92.1146	1	12	0.133011	0.000480001	2.23579e-05	-7.06203e-05	0.00351496	0.000817365	0.00360874	13.0909	1.34965e-05
1.25967	273.9	66.0764	281.757	-13.563	93.4631	3.31511	0.000404001	1912.12	105.162	1	12	0.133009	0.000472071	2.12082e-05	-0.000150752	0.00345018	0.00083233	0.00354915	13.563	-1.1497e-06
1.12249	278.091	69.628	286.675	-14.0567	96.631	3.3151	0.000197018	2036.36	120.128	1	12	0.13301	0.000463975	9.18064e-06	0.000249907	0.00338382	0.000847237	0.00348827	14.0567	-1.20276e-05
1.00006	282.506	73.3295	291.868	-14.551	100.18	3.31511	8.23505e-05	2170.27	136.993	1	12	0.133009	0.000455715	3.45335e-05	-7.06203e-05	0.00331631	0.000860806	0.00342621	14.551	2.53529e-05