File: utils/DE_206_4_30.mpt
EC-Lab ASCII FILE
Nb header lines : 60

Potentio Electrochemical Impedance Spectroscopy

Run on channel : 4 (SN 4192)
User :
CE vs. WE compliance from -10 V to 10 V
Electrode connection : standard
Ewe ctrl range : min = -10.00 V, max = 10.00 V
Acquisition started on : 12/03/2020 16:53:59
Technique started on : 12/03/2020 16:54:00
Saved on :
	File : DE_206_4_30.mpr
	Directory : P:\Chemistry\Data\VMP3\Kyler\DOE\DE_206\
	Host : 10.0.4.64
Device : VMP3 (SN 1432)
Address : USB
EC-Lab for windows v11.33 (software)
Internet server v11.32 (firmware)
Command interpretor v11.33 (firmware)
Electrode material :
Initial state :
Electrolyte :
Comments :
Electrode surface area : 0.001 cm²
Characteristic mass : 0.001 g
Equivalent Weight : 0.000 g/eq.
Density : 0.000 g/cm3
Record Analogic IN 1
Cycle Definition : Charge/Discharge alternance
Mode                Single sine
E (V)               0.0000
vs.                 Eoc
tE (h:m:s)          0:00:0.0000
record              0
dI                  1.000
unit dI             mA
dt (s)              0.000
fi                  1.000
unit fi             MHz
ff                  1.000
unit ff             Hz
Nd                  20
Points              per decade
spacing             Logarithmic
Va (mV)             128.0
pw                  0.50
Na                  3
corr                0
E range min (V)     -10.000
E range max (V)     10.000
I Range             Auto
Bandwidth           5
nc cycles           0
goto Ns'            0
nr cycles           0
inc. cycle          1

freq/Hz	Re(Z)/Ohm	-Im(Z)/Ohm	|Z|/Ohm	Phase(Z)/deg	time/s	<Ewe>/V	<I>/mA	Cs/µF	Cp/µF	cycle number	I Range	|Ewe|/V	|I|/A	(Q-Qo)/mA.h	Analog IN 1/V	Re(Y)/Ohm-1	Im(Y)/Ohm-1	|Y|/Ohm-1	Phase(Y)/deg	dq/mA.h
1.00002e+06	85.8335	36.3943	93.2305	-22.9774	1.94949	3.32559	-0.00369155	0.00437299	0.000666391	1	11	0.00311756	3.34393e-05	-1.63044e-06	-0.0013667	0.00987508	0.00418713	0.0107261	22.9774	-1.63044e-06
891247	90.09	34.5341	96.4822	-20.9732	2.54547	3.32585	-0.00203418	0.005171	0.000662484	1	11	0.00444313	4.60513e-05	-1.98068e-06	-0.000324182	0.00967793	0.00370982	0.0103646	20.9732	-3.50244e-07
794333	92.1028	32.4007	97.6357	-19.3813	3.14048	3.32608	-0.000985605	0.00618391	0.000681012	1	11	0.00613958	6.28825e-05	-2.22613e-06	-0.000564764	0.00966174	0.00339889	0.0102422	19.3813	-2.45446e-07
707950	94.9906	31.1932	99.9812	-18.1792	3.73648	3.32626	-0.000272779	0.00720705	0.000701522	1	11	0.00845759	8.45918e-05	-2.21673e-06	-0.00104593	0.00950264	0.0031205	0.0100019	18.1792	9.40253e-09
630957	98.0709	30.3028	102.646	-17.1705	4.33249	3.3264	0.000360016	0.00832412	0.000725472	1	11	0.0113533	0.000110606	-1.9302e-06	-0.000243989	0.00930803	0.00287607	0.00974224	17.1705	2.86526e-07
562342	100.763	29.5177	104.998	-16.3275	4.92849	3.32646	0.000671575	0.00958819	0.00075778	1	11	0.0148672	0.000141596	-1.87355e-06	-0.000163795	0.00913992	0.00267746	0.00952402	16.3275	5.665e-08
501206	103.666	28.8263	107.6	-15.5396	5.52547	3.32659	0.00118898	0.0110158	0.000790627	1	11	0.0188939	0.000175595	-1.4883e-06	-0.000564764	0.00895399	0.00248982	0.00929371	15.5396	3.85253e-07
446686	106.326	28.1029	109.977	-14.8052	6.12148	3.32666	0.00149365	0.0126785	0.000827874	1	11	0.0237363	0.00021583	-9.79836e-07	-0.00048457	0.00879092	0.00232352	0.0090928	14.8052	5.08462e-07
398103	108.585	27.2797	111.959	-14.1026	6.71748	3.32669	0.00164403	0.0146549	0.000870055	1	11	0.0291987	0.000260798	-7.1588e-07	-0.000324182	0.00866264	0.00217632	0.00893184	14.1026	2.63957e-07
354810	110.861	26.4653	113.976	-13.4267	7.31349	3.32671	0.00157387	0.0169491	0.000913849	1	11	0.0355319	0.000311749	-2.013e-07	-0.000564764	0.00853396	0.00203728	0.00877377	13.4267	5.1458e-07
316230	113.11	25.6327	115.978	-12.7686	7.90848	3.32676	0.00165297	0.0196346	0.000959099	1	11	0.042781	0.000368873	5.31752e-07	-0.000725151	0.00840913	0.00190566	0.00862235	12.7686	7.33053e-07
281835	114.923	24.7435	117.557	-12.1506	8.50449	3.32675	0.00163567	0.0228226	0.0010111	1	11	0.0509739	0.000433612	6.61144e-07	-0.00200825	0.00831597	0.00179047	0.00850654	12.1506	1.29392e-07
251188	116.78	23.8495	119.191	-11.5426	9.09947	3.32676	0.00162264	0.026567	0.0010637	1	11	0.0601766	0.000504877	1.43787e-06	-0.000725151	0.00822024	0.00167879	0.00838992	11.5426	7.76723e-07
223872	118.493	22.9732	120.7	-10.9722	9.69448	3.32676	0.00177991	0.0309456	0.00112106	1	11	0.0704254	0.000583476	2.3155e-06	-0.000324182	0.00813356	0.00157692	0.00828502	10.9722	8.77631e-07
199544	120.287	22.1312	122.306	-10.4251	10.2915	3.3267	0.00178457	0.0360394	0.00118003	1	11	0.0817878	0.000668716	3.07001e-06	-0.000243989	0.00804125	0.00147949	0.00817622	10.4251	7.54514e-07
177832	121.846	21.2966	123.694	-9.91413	10.8865	3.32671	0.00151265	0.0420243	0.00124574	1	11	0.094091	0.000760678	3.1468e-06	-0.000324182	0.00796377	0.00139192	0.00808449	9.91413	7.67843e-08
158486	123.174	20.4497	124.86	-9.42644	11.4835	3.32673	0.00152047	0.0491067	0.00131725	1	11	0.107237	0.000858857	4.5978e-06	-0.00152709	0.00790081	0.00131172	0.00800896	9.42644	1.45101e-06
141256	124.507	19.6396	126.047	-8.96393	11.9435	3.32672	0.00170808	0.0573693	0.00139279	1	11	0.121392	0.000963075	4.92468e-06	-0.00048457	0.00783668	0.00123615	0.00793358	8.96393	3.26883e-07
125909	125.754	18.9005	127.166	-8.54745	12.4035	3.32673	0.0016917	0.0668789	0.00147738	1	11	0.136525	0.00107359	4.99242e-06	0.00015698	0.00777639	0.00116877	0.00786373	8.54745	6.77349e-08
112205	126.97	18.1606	128.262	-8.13986	12.9985	3.32673	0.00179797	0.0781048	0.00156582	1	11	0.130203	0.00101513	5.51702e-06	-0.000564764	0.00771799	0.00110391	0.00779654	8.13986	5.24598e-07
100004	128.128	17.4886	129.316	-7.77246	13.5935	3.32674	0.00185865	0.0910016	0.00166439	1	11	0.129871	0.00100429	5.5257e-06	-0.00048457	0.00766195	0.0010458	0.007733	7.77246	8.67915e-09
89129.3	129.221	16.8454	130.315	-7.42725	14.1885	3.32676	0.00187446	0.106003	0.00177131	1	11	0.12971	0.00099536	8.05455e-06	-0.00200825	0.00760935	0.000991962	0.00767373	7.42725	2.52885e-06
79433.3	130.257	16.2445	131.266	-7.10872	14.7845	3.32678	0.00200381	0.123342	0.00188894	1	11	0.129604	0.000987341	7.15538e-06	-0.0013667	0.00755955	0.000942761	0.00761811	7.10872	-8.99165e-07
70795	131.24	15.6732	132.172	-6.81023	15.3795	3.32678	0.00200419	0.143437	0.00201694	1	11	0.129595	0.000980497	6.34532e-06	-0.00112612	0.00751249	0.000897171	0.00756587	6.81023	-8.10057e-07
63093.8	132.159	15.1502	133.025	-6.53961	15.9745	3.32678	0.00188582	0.1665	0.00215967	1	11	0.129391	0.000972682	8.42721e-06	-0.000725151	0.00746848	0.000856157	0.0075174	6.53961	2.08189e-06
56237	133.046	14.6801	133.853	-6.29648	16.5715	3.32679	0.0019491	0.192783	0.00231883	1	11	0.129411	0.000966815	7.09572e-06	-0.000805345	0.0074258	0.000819354	0.00747087	6.29648	-1.33149e-06
50122.5	133.879	14.2539	134.636	-6.07732	17.0315	3.32679	0.00198837	0.222768	0.00249691	1	11	0.140232	0.00104157	6.92686e-06	-0.000564764	0.00738572	0.000786349	0.00742746	6.07732	-1.68857e-07
44666.7	134.696	13.8854	135.41	-5.88566	17.6265	3.32681	0.00205705	0.256612	0.00269832	1	11	0.130309	0.000962329	5.70584e-06	-0.000564764	0.00734604	0.000757282	0.00738497	5.88566	-1.22103e-06
39814.1	135.395	13.5697	136.074	-5.72324	18.0855	3.32682	0.0020241	0.294586	0.00292958	1	11	0.139348	0.00102406	6.02636e-06	-0.000725151	0.00731232	0.000732862	0.00734895	5.72324	3.2052e-07
35481	136.203	13.3148	136.852	-5.58331	18.6815	3.3268	0.00195673	0.336892	0.003189	1	11	0.130102	0.000950677	8.11721e-06	0.00015698	0.00727249	0.000710935	0.00730716	5.58331	2.09086e-06
31621.1	136.857	13.0975	137.482	-5.46666	19.1405	3.32681	0.00200716	0.384287	0.00348767	1	11	0.137213	0.000998039	8.09705e-06	-0.000805345	0.00724057	0.000692936	0.00727366	5.46666	-2.01685e-08
28188.1	137.599	12.9521	138.207	-5.37737	19.7365	3.32681	0.00208813	0.435927	0.00382854	1	11	0.12967	0.000938227	7.93303e-06	-0.000564764	0.00720367	0.000678077	0.00723551	5.37737	-1.6401e-07
25116.9	138.25	12.8675	138.848	-5.31742	20.1955	3.32682	0.0020215	0.492448	0.00422931	1	11	0.134959	0.000971992	8.33092e-06	-0.000404376	0.00717114	0.000667446	0.00720213	5.31742	3.97886e-07
22389	138.919	12.8366	139.511	-5.27932	20.6555	3.32683	0.00204569	0.553778	0.00468832	1	11	0.139639	0.00100092	9.46656e-06	-0.000564764	0.00713749	0.000659527	0.00716789	5.27932	1.13563e-06
19948.8	139.602	12.8779	140.195	-5.27048	21.2515	3.32681	0.0020215	0.619523	0.00522742	1	11	0.129607	0.000924477	7.81352e-06	-0.000644957	0.00710278	0.000655214	0.00713294	5.27048	-1.65303e-06
17786.9	140.326	12.979	140.925	-5.28434	21.7105	3.3268	0.00203955	0.689412	0.00584768	1	11	0.132707	0.000941683	7.2153e-06	-0.000885539	0.0070658	0.000653527	0.00709596	5.28434	-5.98224e-07
15847.7	140.988	13.1452	141.6	-5.32666	22.1695	3.32681	0.00200996	0.763987	0.00658413	1	11	0.135293	0.000955461	6.5754e-06	-0.000564764	0.00703167	0.000655608	0.00706217	5.32666	-6.39903e-07
14121.9	141.691	13.3753	142.321	-5.39261	22.6285	3.32682	0.00206561	0.842605	0.00744207	1	11	0.137458	0.000965828	7.15729e-06	-0.000885539	0.00699528	0.000660338	0.00702637	5.39261	5.81888e-07
12590.9	142.422	13.6497	143.074	-5.47451	23.0875	3.32682	0.00201089	0.92606	0.00842875	1	11	0.139234	0.000973162	6.54758e-06	-0.000404376	0.0069575	0.000666808	0.00698938	5.47451	-6.09706e-07
11217.7	143.191	14.0115	143.875	-5.58869	23.5465	3.32683	0.00202559	1.01259	0.00960349	1	11	0.14068	0.000977794	6.52288e-06	-0.00144689	0.00691744	0.000676882	0.00695048	5.58869	-2.47023e-08
10002.2	144.006	14.4157	144.726	-5.71656	24.1415	3.32682	0.00193737	1.10379	0.0109514	1	11	0.129379	0.000893959	8.29977e-06	-0.00120631	0.00687527	0.00068825	0.00690963	5.71656	1.77689e-06
8914.93	144.852	14.8891	145.615	-5.86874	24.6239	3.32688	0.00232412	1.19904	0.012536	1	11	0.130221	0.000894279	8.15638e-06	-0.00104593	0.00683142	0.000702191	0.00686741	5.86874	-1.43389e-07
7944	145.743	15.432	146.558	-6.04423	25.15	3.32689	0.00248921	1.29826	0.0143941	1	11	0.130885	0.000893058	8.94644e-06	-0.000324182	0.00678532	0.000718462	0.00682325	6.04423	7.90056e-07
7082.23	146.683	16.0092	147.554	-6.22869	25.7269	3.32691	0.00257966	1.40372	0.0165241	1	11	0.131389	0.000890447	9.80776e-06	-0.000965732	0.00673718	0.000735305	0.00677718	6.22869	8.61327e-07
6307.73	147.718	16.6581	148.655	-6.43401	26.3615	3.32692	0.00246687	1.51468	0.0190202	1	11	0.131801	0.000886627	9.70288e-06	-8.36012e-05	0.00668463	0.000753819	0.006727	6.43401	-1.04882e-07
5621.06	148.816	17.3513	149.824	-6.65041	27.0623	3.32692	0.00247469	1.63182	0.0218862	1	11	0.132107	0.000881751	1.09172e-05	-0.000644957	0.00662959	0.000772982	0.0066745	6.65041	1.21436e-06
5011.6	149.985	18.0713	151.069	-6.87031	27.8227	3.32692	0.00244789	1.75733	0.0251466	1	11	0.132336	0.000875997	1.16172e-05	-0.000725151	0.00657195	0.000791838	0.00661948	6.87031	6.99969e-07
4466.43	151.272	18.8453	152.441	-7.10128	28.5827	3.32693	0.00256682	1.89085	0.0288975	1	11	0.132512	0.000869266	1.28021e-05	-0.00104593	0.0065096	0.000810961	0.00655992	7.10128	1.18492e-06
3981.27	152.651	19.6354	153.908	-7.3297	29.3427	3.32693	0.00258226	2.03591	0.0331371	1	11	0.132643	0.000861832	1.28207e-05	-0.000725151	0.00644428	0.000828927	0.00649738	7.3297	1.85296e-08
3546.6	154.149	20.4432	155.498	-7.55446	30.1029	3.32691	0.00240136	2.19513	0.0379406	1	11	0.132728	0.000853568	1.31227e-05	-0.000885539	0.00637511	0.000845465	0.00643093	7.55446	3.02088e-07
3161.01	155.752	21.2664	157.197	-7.77509	30.8627	3.32692	0.00251098	2.36756	0.0433311	1	11	0.13279	0.00084474	1.33547e-05	-0.000805345	0.00630297	0.000860608	0.00636145	7.77509	2.31913e-07
2817.3	157.463	22.0549	159	-7.9732	31.6229	3.32692	0.00230886	2.56143	0.0492831	1	11	0.132828	0.000835396	1.31387e-05	-0.000885539	0.0062285	0.000872388	0.0062893	7.9732	-2.15955e-07
2510.8	159.268	22.8267	160.896	-8.1562	32.3827	3.32693	0.00247097	2.77693	0.0558934	1	11	0.132849	0.000825681	1.34061e-05	-8.36012e-05	0.00615234	0.000881765	0.0062152	8.1562	2.67428e-07
2237.85	161.197	23.5355	162.906	-8.30678	33.1429	3.32693	0.00226903	3.02179	0.0630724	1	11	0.132859	0.000815559	1.44493e-05	-0.000725151	0.00607411	0.00088685	0.00613851	8.30678	1.04318e-06
1995.64	163.283	24.2003	165.067	-8.43049	33.9027	3.32692	0.00240806	3.29546	0.0708337	1	11	0.132858	0.000804877	1.44212e-05	-0.000644957	0.00599269	0.000888182	0.00605815	8.43049	-2.81022e-08
1778.29	165.469	24.7562	167.311	-8.50904	34.663	3.32691	0.00231928	3.6152	0.0791505	1	11	0.132849	0.000794028	1.54662e-05	-0.00104593	0.00591112	0.000884376	0.00597691	8.50904	1.04498e-06
1585.51	167.716	25.2285	169.603	-8.55453	35.4227	3.32693	0.00251638	3.97887	0.0880394	1	11	0.132834	0.000783207	1.62357e-05	-0.00112612	0.00583053	0.000877052	0.00589612	8.55453	7.69559e-07
1411.84	170.079	25.5574	171.988	-8.54579	36.1842	3.32692	0.00237902	4.41081	0.097399	1	11	0.132821	0.000772264	1.72575e-05	-0.000564764	0.00574979	0.00086401	0.00581434	8.54579	1.02179e-06
1258.79	172.471	25.75	174.383	-8.49155	36.9439	3.32691	0.0024343	4.91008	0.107062	1	11	0.132805	0.000761571	1.83418e-05	-0.00120631	0.00567164	0.000846777	0.0057345	8.49155	1.08424e-06
1121.79	174.891	25.8088	176.785	-8.39462	37.7024	3.32691	0.00243597	5.49716	0.117162	1	11	0.132789	0.000751135	1.85364e-05	-0.00112612	0.00559599	0.000825807	0.0056566	8.39462	1.94656e-07
1000.32	177.275	25.7026	179.129	-8.24964	38.4617	3.32695	0.00275088	6.1902	0.127446	1	11	0.132767	0.000741184	1.96199e-05	-0.000965732	0.0055248	0.000801023	0.00558257	8.24964	1.08347e-06
891.427	179.659	25.4303	181.45	-8.05656	39.2204	3.32692	0.00266471	7.02074	0.137903	1	11	0.132749	0.0007316	2.06818e-05	-0.00112612	0.00545677	0.000772394	0.00551117	8.05656	1.06185e-06
794.238	181.976	25.0461	183.692	-7.8366	39.9799	3.32692	0.00268481	8.00072	0.148741	1	11	0.132735	0.000722593	2.07592e-05	-0.00104593	0.00539306	0.000742267	0.0054439	7.8366	7.74448e-08
707.509	184.262	24.5192	185.887	-7.57962	40.7425	3.32693	0.00270752	9.1745	0.159624	1	11	0.132725	0.000714013	2.20006e-05	-0.000725151	0.00533262	0.000709593	0.00537962	7.57962	1.2414e-06
631.01	186.399	23.8788	187.923	-7.30016	41.5004	3.32692	0.00268127	10.5626	0.170545	1	11	0.13271	0.000706194	2.30954e-05	-0.000885539	0.00527821	0.000676169	0.00532134	7.30016	1.09478e-06
562.339	188.424	23.1547	189.841	-7.00576	42.2569	3.32691	0.00266657	12.2231	0.181837	1	11	0.1327	0.000699008	2.39786e-05	-0.000243989	0.00522824	0.000642481	0.00526757	7.00576	8.83247e-07
501.444	190.296	22.3501	191.604	-6.69864	43.0142	3.32692	0.00262488	14.201	0.193226	1	11	0.132687	0.000692507	2.47265e-05	-0.000644957	0.00518346	0.000608792	0.00521909	6.69864	7.47884e-07
446.859	192.026	21.5316	193.229	-6.39778	43.7709	3.32691	0.00262544	16.5414	0.20539	1	11	0.132672	0.000686604	2.52668e-05	-0.000404376	0.00514297	0.000576674	0.0051752	6.39778	5.40299e-07
398.089	193.644	20.6618	194.743	-6.09042	44.5337	3.32692	0.00271384	19.3496	0.217813	1	11	0.132668	0.000681245	2.54428e-05	-0.000885539	0.00510599	0.000544809	0.00513497	6.09042	1.75953e-07
354.66	195.121	19.7992	196.123	-5.79404	45.2939	3.32692	0.00262953	22.6653	0.230992	1	11	0.132664	0.000676433	2.63144e-05	-0.000885539	0.00507278	0.000514741	0.00509883	5.79404	8.71679e-07
316.316	196.451	18.9852	197.366	-5.51999	46.0509	3.32692	0.00270044	26.5023	0.245228	1	11	0.132658	0.000672139	2.63737e-05	-0.000725151	0.00504323	0.000487383	0.00506672	5.51999	5.93158e-08
281.894	197.683	18.2079	198.519	-5.26248	46.8064	3.32692	0.00265466	31.008	0.260849	1	11	0.132655	0.00066822	2.75276e-05	-0.000324182	0.00501606	0.000462013	0.00503729	5.26248	1.15386e-06
251.044	198.806	17.4632	199.571	-5.02001	47.5629	3.32692	0.00268593	36.3032	0.27797	1	11	0.132653	0.000664688	2.83052e-05	-0.00120631	0.00499152	0.000438458	0.00501074	5.02001	7.77614e-07
223.925	199.818	16.8019	200.523	-4.80648	48.3257	3.32692	0.00270491	42.3017	0.296994	1	11	0.132649	0.000661513	2.89702e-05	-0.000885539	0.00496942	0.00041786	0.00498696	4.80648	6.65004e-07
199.553	200.758	16.2183	201.412	-4.61862	49.0872	3.32691	0.00268425	49.1765	0.318857	1	11	0.132641	0.000658557	2.87023e-05	-0.000564764	0.00494882	0.000399792	0.00496495	4.61862	-2.67967e-07
177.781	201.639	15.6822	202.248	-4.44714	49.8553	3.32692	0.00277805	57.0858	0.343221	1	11	0.132641	0.000655833	2.86896e-05	-0.000965732	0.00492955	0.000383389	0.00494443	4.44714	-1.26281e-08
158.428	202.474	15.2529	203.048	-4.30809	50.6218	3.32691	0.00268015	65.8622	0.371657	1	11	0.132643	0.000653259	2.97181e-05	-0.000805345	0.00491104	0.000369961	0.00492495	4.30809	1.02842e-06
141.311	203.231	14.9109	203.777	-4.19623	51.3749	3.32692	0.00270919	75.5334	0.404424	1	11	0.13264	0.000650905	2.99334e-05	-0.000243989	0.00489417	0.000359082	0.00490732	4.19623	2.15296e-07
125.846	203.968	14.6446	204.493	-4.1067	52.1304	3.32692	0.00265391	86.3583	0.442895	1	11	0.132634	0.000648599	3.07382e-05	-0.00048457	0.00487758	0.000350202	0.00489013	4.1067	8.0489e-07
112.19	204.68	14.4586	205.19	-4.04067	52.8758	3.32691	0.00264181	98.116	0.48717	1	11	0.132635	0.000646399	3.14036e-05	-0.000725151	0.00486142	0.000343411	0.00487354	4.04067	6.65348e-07
100.032	205.391	14.342	205.891	-3.99436	53.6357	3.32692	0.00274139	110.935	0.538289	1	11	0.132631	0.00064418	3.15734e-05	-0.000805345	0.00484513	0.000338325	0.00485693	3.99436	1.69809e-07
89.116	206.072	14.327	206.57	-3.97705	54.4027	3.32692	0.00277842	124.655	0.599635	1	11	0.132639	0.000642103	3.17356e-05	-0.00048457	0.00482932	0.000335755	0.00484098	3.97705	1.62219e-07
79.4155	206.758	14.3918	207.259	-3.98175	55.1672	3.32691	0.00282384	139.252	0.671434	1	11	0.132636	0.000639956	3.28502e-05	-0.000644957	0.00481324	0.000335034	0.00482489	3.98175	1.11463e-06
70.8387	207.444	14.5431	207.953	-4.01023	55.9184	3.32691	0.00279685	154.487	0.755572	1	11	0.132633	0.000637801	3.33117e-05	-0.00048457	0.004797	0.0003363	0.00480877	4.01023	4.61459e-07
63.0823	208.157	14.7818	208.681	-4.06192	56.6988	3.32691	0.00272687	170.681	0.856397	1	11	0.132632	0.000635572	3.35615e-05	-0.00104593	0.00477997	0.00033944	0.00479201	4.06192	2.49749e-07
56.2418	208.917	15.0454	209.458	-4.1191	57.4433	3.32691	0.00260775	188.086	0.970441	1	11	0.132633	0.000633217	3.4319e-05	-0.000965732	0.00476189	0.000342932	0.00477422	4.1191	7.57495e-07
50.1444	209.687	15.4102	210.252	-4.20319	58.2002	3.32692	0.00267624	205.963	1.10643	1	11	0.132632	0.000630824	3.50231e-05	-0.000644957	0.00474339	0.000348599	0.00475619	4.20319	7.04124e-07
44.6712	210.504	15.8726	211.101	-4.31211	58.9642	3.32691	0.00267978	224.463	1.26899	1	11	0.132631	0.000628283	3.52534e-05	-0.000324182	0.00472365	0.000356177	0.00473706	4.31211	2.30293e-07
39.8089	211.367	16.3874	212.001	-4.43332	59.7267	3.32692	0.0025642	243.966	1.45772	1	11	0.132633	0.000625625	3.65549e-05	-0.000885539	0.00470284	0.000364615	0.00471696	4.43332	1.30156e-06
35.4653	212.271	16.9792	212.949	-4.57327	60.4771	3.32691	0.00270584	264.301	1.68029	1	11	0.132633	0.00062284	3.58168e-05	-0.000324182	0.00468102	0.000374428	0.00469597	4.57327	-7.3818e-07
31.6296	213.24	17.6479	213.969	-4.73105	61.2014	3.32691	0.00265838	285.124	1.93962	1	11	0.132633	0.000619872	3.62705e-05	-0.000404376	0.00465765	0.00038547	0.00467357	4.73105	4.53763e-07
28.1701	214.261	18.3719	215.047	-4.90086	62.0067	3.32691	0.00258988	307.524	2.24449	1	11	0.132635	0.000616773	3.85195e-05	-0.00048457	0.00463314	0.00039727	0.00465014	4.90086	2.24896e-06
25.1044	215.321	19.1845	216.174	-5.09145	62.7629	3.32692	0.00272054	330.461	2.60263	1	11	0.132633	0.000613547	3.94851e-05	-0.00048457	0.00460765	0.000410528	0.0046259	5.09145	9.65658e-07
22.3854	216.467	20.0442	217.393	-5.29031	63.4484	3.32691	0.00272463	354.705	3.01544	1	11	0.13263	0.000610094	3.81864e-05	-0.000725151	0.00458036	0.000424126	0.00459995	5.29031	-1.29872e-06
19.9553	217.674	20.9793	218.683	-5.50511	64.2102	3.32691	0.00252177	380.165	3.49882	1	11	0.132632	0.000606502	3.90671e-05	-0.00048457	0.00455174	0.000438692	0.00457283	5.50511	8.80659e-07
17.7961	218.933	21.9865	220.034	-5.73475	65.0545	3.32689	0.00235296	406.759	4.06135	1	11	0.13264	0.000602814	3.93263e-05	-0.000725151	0.004522	0.000454126	0.00454474	5.73475	2.59243e-07
15.8576	220.311	23.0683	221.515	-5.97754	65.7759	3.32691	0.00273264	435.079	4.71836	1	11	0.132629	0.000598735	4.12816e-05	-0.00048457	0.00448982	0.000470119	0.00451436	5.97754	1.95533e-06
14.119	221.755	24.2465	223.076	-6.2399	66.5783	3.32691	0.00271793	464.908	5.49237	1	11	0.132626	0.000594534	3.93256e-05	-0.000885539	0.00445621	0.00048724	0.00448277	6.2399	-1.95601e-06
12.6008	223.232	25.4484	224.678	-6.50362	67.4689	3.32691	0.00246993	496.32	6.36738	1	11	0.132642	0.000590364	4.10259e-05	-0.000725151	0.00442217	0.000504126	0.00445081	6.50362	1.70026e-06
11.2249	224.857	26.7366	226.441	-6.78091	68.1529	3.32691	0.00250576	530.315	7.39325	1	11	0.132631	0.000585718	4.02815e-05	-0.000243989	0.00438527	0.00052143	0.00441617	6.78091	-7.44384e-07
10.0032	226.587	28.0785	228.32	-7.06406	68.9137	3.32691	0.00245551	566.64	8.56976	1	11	0.132637	0.000580925	4.54325e-05	-0.000564764	0.00434658	0.000538626	0.00437982	7.06406	5.15099e-06
8.91838	228.349	29.5061	230.247	-7.36269	69.758	3.32689	0.00250502	604.814	9.93249	1	11	0.132644	0.000576093	4.05272e-05	-0.000564764	0.00430735	0.000556576	0.00434316	7.36269	-4.90527e-06
7.93953	230.276	31.0227	232.356	-7.67268	70.6967	3.32691	0.00245383	646.169	11.5185	1	11	0.132641	0.000570852	4.71466e-05	-0.000564764	0.00426521	0.000574608	0.00430374	7.67268	6.61938e-06
7.07654	232.233	32.5508	234.503	-7.97885	71.255	3.3269	0.00293513	690.936	13.3126	1	11	0.132632	0.000565589	4.75803e-05	-0.000725151	0.00422306	0.000591922	0.00426434	7.97885	4.33727e-07
6.31058	234.299	34.1819	236.779	-8.30033	71.8752	3.32691	0.00328242	737.826	15.3766	1	11	0.132642	0.000560194	4.6801e-05	-0.000324182	0.0041791	0.00060969	0.00422334	8.30033	-7.79347e-07
5.6205	236.511	35.928	239.224	-8.63767	72.5616	3.32691	0.00322845	788.156	17.7774	1	11	0.132631	0.000554423	4.35367e-05	-0.00104593	0.00413277	0.000627802	0.00418018	8.63767	-3.26425e-06
5.01444	238.897	37.7062	241.854	-8.96928	73.3192	3.32693	0.00280168	841.752	20.4599	1	11	0.132623	0.000548359	3.98709e-05	-0.000885539	0.00408416	0.000644623	0.00413472	8.96928	-3.66589e-06
4.46939	241.16	39.4877	244.371	-9.29914	74.1605	3.32688	0.0018792	901.799	23.5469	1	11	0.132643	0.000542793	4.43007e-05	-0.000404376	0.00403836	0.000661244	0.00409214	9.29914	4.42984e-06
3.97785	243.785	41.5323	247.298	-9.66833	75.0972	3.3269	0.00246267	963.354	27.1717	1	11	0.132636	0.000536344	5.2545e-05	-0.000885539	0.00398628	0.000679119	0.00404371	9.66833	8.24431e-06
3.55114	246.327	43.4377	250.128	-10.0008	76.1384	3.32692	0.00286831	1031.78	31.1169	1	11	0.13264	0.000530289	4.5906e-05	-0.0013667	0.00393721	0.000694294	0.00399796	10.0008	-6.63896e-06
3.1604	249.336	45.6202	253.475	-10.3685	77.3002	3.32693	0.00258328	1103.88	35.7574	1	11	0.132639	0.000523281	4.17065e-05	-0.00048457	0.00388074	0.000710047	0.00394516	10.3685	-4.19951e-06
2.81836	252.263	47.889	256.769	-10.749	78.5956	3.32691	0.00225085	1179.2	41.018	1	11	0.132639	0.000516571	5.67328e-05	-3.40745e-06	0.00382622	0.000726359	0.00389455	10.749	1.50263e-05
2.51367	255.439	50.112	260.308	-11.0993	80.0397	3.32693	0.00284469	1263.48	46.825	1	11	0.132644	0.000509566	4.63859e-05	-0.000885539	0.00376974	0.000739549	0.0038416	11.0993	-1.03469e-05
2.23982	258.834	52.5421	264.113	-11.4749	81.6543	3.32691	0.00226278	1352.38	53.5223	1	11	0.132643	0.000502223	4.72313e-05	-0.000564764	0.00371058	0.000753231	0.00378626	11.4749	8.45411e-07
1.99706	262.678	55.1763	268.41	-11.8627	84.0067	3.32692	0.00010014	1444.36	61.0357	1	12	0.132645	0.000494188	6.0005e-05	-0.000885539	0.00364607	0.00076587	0.00372564	11.8627	1.27737e-05
1.77961	266.185	57.7911	272.387	-12.2493	86.0249	3.32692	0.000688333	1547.51	69.6601	1	12	0.132642	0.000486963	3.91736e-05	-0.00048457	0.00358767	0.000778914	0.00367125	12.2493	-2.08314e-05
1.58469	270.063	60.5273	276.763	-12.6325	88.2841	3.32692	-0.000156319	1659.3	79.362	1	12	0.132646	0.000479278	5.40284e-05	-0.00048457	0.00352573	0.000790197	0.0036132	12.6325	1.48548e-05
1.41224	274.114	63.4699	281.366	-13.0368	90.8131	3.32693	0.00031301	1775.6	90.3518	1	12	0.132642	0.000471422	5.07252e-05	7.67863e-05	0.00346248	0.000801723	0.00355409	13.0368	-3.30325e-06
1.25967	278.256	66.5133	286.095	-13.4435	93.6419	3.32693	0.000152199	1899.56	102.672	1	12	0.132646	0.000463643	4.12417e-05	-0.00048457	0.00339957	0.000812622	0.00349534	13.4435	-9.48341e-06
1.12249	282.592	69.7055	291.062	-13.8562	96.8101	3.32693	0.000128074	2034.1	116.664	1	12	0.132645	0.000455727	6.38045e-05	-0.000725151	0.00333571	0.000822803	0.00343569	13.8562	2.25628e-05
1.00006	287.139	73.0346	296.282	-14.2707	100.359	3.32693	0.000478798	2179.03	132.407	1	12	0.132647	0.000447704	3.08369e-05	-0.00144689	0.00327102	0.000831993	0.00337517	14.2707	-3.29676e-05