File: data/DE_140_1_30.mpt
EC-Lab ASCII FILE
Nb header lines : 59

Potentio Electrochemical Impedance Spectroscopy

Run on channel : 1 (SN 20909)
User :
CE vs. WE compliance from -10 V to 10 V
Electrode connection : standard
Ewe ctrl range : min = -10.00 V, max = 10.00 V
Acquisition started on : 06/20/2020 10:08:24
Saved on :
	File : DE_140_1_30.mpr
	Directory : P:\Chemistry\Data\VMP3\Kyler\DOE\DE_140\
	Host : 10.0.4.64
Device : VMP3 (SN 1432)
Address : USB
EC-Lab for windows v11.33 (software)
Internet server v11.32 (firmware)
Command interpretor v11.33 (firmware)
Electrode material :
Initial state :
Electrolyte :
Comments :
Electrode surface area : 0.001 cm²
Characteristic mass : 0.001 g
Equivalent Weight : 0.000 g/eq.
Density : 0.000 g/cm3
Record Analogic IN 1
Cycle Definition : Charge/Discharge alternance
Mode                Single sine
E (V)               0.0000
vs.                 Eoc
tE (h:m:s)          0:00:0.0000
record              0
dI                  1.000
unit dI             mA
dt (s)              0.000
fi                  1.000
unit fi             MHz
ff                  1.000
unit ff             Hz
Nd                  20
Points              per decade
spacing             Logarithmic
Va (mV)             128.0
pw                  0.50
Na                  3
corr                0
E range min (V)     -10.000
E range max (V)     10.000
I Range             Auto
Bandwidth           5
nc cycles           0
goto Ns'            0
nr cycles           0
inc. cycle          1

freq/Hz	Re(Z)/Ohm	-Im(Z)/Ohm	|Z|/Ohm	Phase(Z)/deg	time/s	<Ewe>/V	<I>/mA	Cs/µF	Cp/µF	cycle number	I Range	|Ewe|/V	|I|/A	(Q-Qo)/mA.h	Analog IN 1/V	Re(Y)/Ohm-1	Im(Y)/Ohm-1	|Y|/Ohm-1	Phase(Y)/deg	dq/mA.h
1.00002e+06	97.8853	190.325	214.021	-62.7829	1.74749	-0.142069	-0.000395363	0.000836213	0.000661293	1	11	0.00115672	5.40468e-06	-1.11198e-07	0.000102121	0.002137	0.00415511	0.00467244	62.7829	-1.11198e-07
891247	110.874	199.458	228.203	-60.9314	2.34347	-0.14154	-0.00045975	0.000895304	0.000683962	1	11	0.00216248	9.47612e-06	-1.80097e-07	0.000182324	0.00212905	0.0038301	0.00438207	60.9314	-6.88992e-08
794333	124.92	213.651	247.491	-59.6856	2.93847	-0.141079	-0.000510887	0.000937804	0.000698883	1	11	0.00290359	1.17321e-05	-2.67219e-07	-5.82835e-05	0.00203944	0.00348808	0.00404055	59.6856	-8.71222e-08
707950	139.602	228.976	268.177	-58.6302	3.53348	-0.140653	-0.000463856	0.00098181	0.000715757	1	11	0.0027715	1.03346e-05	-4.37479e-07	-0.000218689	0.00194111	0.00318382	0.00372888	58.6302	-1.7026e-07
630957	154.79	246.916	291.423	-57.9166	4.12949	-0.140246	-0.000516298	0.00102158	0.000733368	1	11	0.0011611	3.98424e-06	-6.32375e-07	-5.82835e-05	0.00182262	0.00290738	0.00343144	57.9166	-1.94896e-07
562342	173.228	261.533	313.7	-56.4813	4.72548	-0.139945	-0.000503607	0.00108216	0.000752173	1	11	0.00237608	7.57436e-06	-5.68584e-07	2.1919e-05	0.00176031	0.00265765	0.00318776	56.4813	6.3791e-08
501206	191.624	279.278	338.698	-55.5444	5.32248	-0.139641	-0.000388641	0.00113702	0.000773064	1	11	0.00807078	2.38288e-05	-4.315e-07	2.1919e-05	0.00167042	0.00243451	0.00295248	55.5444	1.37084e-07
446686	211.911	296.811	364.696	-54.4747	5.91849	-0.13937	-0.000364566	0.00120043	0.000795127	1	11	0.0158306	4.34077e-05	-6.03199e-07	-0.000298891	0.00159328	0.00223161	0.00274201	54.4747	-1.71699e-07
398103	234.793	315.938	393.63	-53.3817	6.51448	-0.139237	-0.000392187	0.00126539	0.000815173	1	11	0.0256054	6.50494e-05	-8.85959e-07	-0.000619701	0.00151534	0.00203904	0.00254046	53.3817	-2.8276e-07
354810	257.54	333.971	421.739	-52.3626	7.10948	-0.139128	-0.000416821	0.00134312	0.000842259	1	11	0.0371322	8.80455e-05	-1.13379e-06	0.000663539	0.00144796	0.00187768	0.00237113	52.3626	-2.47829e-07
316230	282.746	352.001	451.497	-51.2267	7.70449	-0.139041	-0.000395731	0.00142979	0.000869062	1	11	0.050413	0.000111657	-1.11479e-06	-0.000218689	0.00138703	0.00172677	0.00221485	51.2267	1.8995e-08
281835	309.398	370.459	482.667	-50.1322	8.3005	-0.138972	-0.000358218	0.00152435	0.000897989	1	11	0.0652343	0.000135154	-1.11161e-06	0.000342729	0.00132808	0.00159018	0.00207182	50.1322	3.18581e-09
251188	337.89	388.877	515.165	-49.0131	8.89548	-0.138979	-0.00039797	0.00162933	0.000928413	1	11	0.0815864	0.000158369	-1.07154e-06	0.000182324	0.00127316	0.00146528	0.00194113	49.0131	4.00714e-08
223872	373.844	403.668	550.188	-47.1967	9.79448	-0.139031	-9.3251e-05	0.00176115	0.000948031	1	12	0.0407144	7.40008e-05	-1.18367e-06	2.1919e-05	0.001235	0.00133353	0.00181756	47.1967	-1.12134e-07
199544	405.426	421.924	585.142	-46.1424	10.3905	-0.138931	1.18082e-05	0.00189038	0.000982868	1	12	0.0504531	8.62237e-05	-9.96555e-07	0.000342729	0.0011841	0.00123229	0.00170899	46.1424	1.87116e-07
177832	438.886	440.099	621.537	-45.0791	10.9855	-0.138942	-7.58561e-05	0.00203358	0.00101959	1	12	0.0616563	9.91998e-05	-1.2221e-06	-0.000218689	0.0011361	0.00113924	0.00160892	45.0791	-2.2554e-07
158486	474.216	457.516	658.94	-43.9731	11.5815	-0.138922	-5.23766e-05	0.00219494	0.00105814	1	12	0.0744476	0.000112981	-1.1477e-06	-0.000218689	0.00109216	0.00105369	0.00151759	43.9731	7.43945e-08
141256	510.904	474.351	697.159	-42.8753	12.1765	-0.138904	-6.85945e-05	0.00237528	0.00109964	1	12	0.0890894	0.000127789	-1.02608e-06	0.000182324	0.00105118	0.000975968	0.00143439	42.8753	1.21624e-07
125909	548.832	490.62	736.155	-41.7947	12.7735	-0.138865	-2.79255e-05	0.00257642	0.00114438	1	12	0.105645	0.000143509	-1.15145e-06	0.000342729	0.00101275	0.00090533	0.00135841	41.7947	-1.2537e-07
112205	587.869	506.439	775.932	-40.7443	13.2325	-0.138952	-0.000195452	0.00280079	0.00119313	1	12	0.124442	0.000160377	-1.03639e-06	-5.82835e-05	0.000976412	0.000841162	0.00128877	40.7443	1.15061e-07
100004	628.708	521.181	816.642	-39.6578	13.8285	-0.138825	-4.36402e-05	0.00305362	0.00124374	1	12	0.129444	0.000158508	-8.47948e-07	-0.000218689	0.000942727	0.000781494	0.00122453	39.6578	1.88437e-07
89129.3	670.836	535.528	858.377	-38.6004	14.4245	-0.13878	-5.19085e-05	0.0033344	0.00129785	1	12	0.130271	0.000151765	-9.69824e-07	0.000262526	0.000910459	0.000726819	0.00116499	38.6004	-1.21876e-07
79433.3	713.813	548.945	900.483	-37.5614	15.0205	-0.138744	-3.48126e-05	0.00364997	0.00135642	1	12	0.130222	0.000144613	-9.28444e-07	-0.000298891	0.000880306	0.000676983	0.00111052	37.5614	4.13802e-08
70795	758.085	561.723	943.518	-36.5376	15.6155	-0.138718	-4.90536e-05	0.00400217	0.00141853	1	12	0.130185	0.000137978	-7.72298e-07	0.000262526	0.000851565	0.00063099	0.00105986	36.5376	1.56146e-07
63093.8	803.518	573.37	987.114	-35.5107	16.2105	-0.13866	-3.12857e-05	0.00439945	0.00148434	1	12	0.129989	0.000131686	-6.64051e-07	-0.000138486	0.000824633	0.000588437	0.00101305	35.5107	1.08247e-07
56237	849.798	584.542	1031.43	-34.5225	16.8055	-0.138654	-2.3746e-05	0.00484152	0.00155502	1	12	0.129839	0.000125883	-5.35613e-07	-0.000218689	0.000798798	0.000549461	0.000969529	34.5225	1.28438e-07
50122.5	896.936	594.6	1076.12	-33.5413	17.4005	-0.138642	-5.92077e-05	0.00534026	0.00163038	1	12	0.129686	0.000120512	-4.631e-07	-5.82835e-05	0.000774527	0.000513452	0.000929261	33.5413	7.25128e-08
44666.7	945.186	603.613	1121.48	-32.563	17.9965	-0.138614	-5.7024e-05	0.00590307	0.00171005	1	12	0.129515	0.000115485	-5.39091e-07	0.000102121	0.000751504	0.000479924	0.000891676	32.563	-7.59909e-08
39814.1	994.277	611.823	1167.44	-31.6058	18.5925	-0.138658	-7.68826e-05	0.00653368	0.00179449	1	12	0.129248	0.000110711	-6.23151e-07	0.000262526	0.000729523	0.000448908	0.000856575	31.6058	-8.40603e-08
35481	1043.67	619.139	1213.5	-30.6778	19.0525	-0.138618	-6.52549e-05	0.00724496	0.00188597	1	12	0.138902	0.000114464	-7.31355e-07	0.000102121	0.000708736	0.000420446	0.000824064	30.6778	-1.08203e-07
31621.1	1093.85	625.459	1260.04	-29.7608	19.6485	-0.138603	-6.70282e-05	0.00804718	0.00198277	1	12	0.12995	0.000103132	-8.17673e-07	0.000182324	0.00068895	0.000393939	0.000793625	29.7608	-8.6318e-08
28188.1	1144.61	630.289	1306.67	-28.8398	20.1085	-0.138604	-3.48142e-05	0.00895808	0.00208431	1	12	0.136462	0.000104435	-9.22203e-07	2.1919e-05	0.000670385	0.000369154	0.000765304	28.8398	-1.04531e-07
25116.9	1195.99	634.462	1353.86	-27.9456	20.7055	-0.138601	-5.54753e-05	0.0099873	0.00219339	1	12	0.129442	9.56096e-05	-8.07371e-07	2.1919e-05	0.000652501	0.000346148	0.000738631	27.9456	1.14833e-07
22389	1247.97	637.017	1401.15	-27.0417	21.1655	-0.138592	-3.44971e-05	0.0111592	0.00230657	1	12	0.133431	9.52299e-05	-8.82698e-07	-0.000218689	0.000635675	0.000324475	0.000713699	27.0417	-7.53275e-08
19948.8	1299.76	638.394	1448.07	-26.1586	21.6255	-0.138609	-3.67741e-05	0.0124973	0.00242891	1	12	0.136552	9.42994e-05	-8.00446e-07	-0.000298891	0.000619843	0.000304445	0.000690574	26.1586	8.22526e-08
17786.9	1351.12	638.764	1494.5	-25.3033	22.0855	-0.138596	-3.795e-05	0.0140081	0.00255899	1	12	0.138909	9.2947e-05	-7.53012e-07	0.000182324	0.000604923	0.000285988	0.000669119	25.3033	4.74339e-08
15847.7	1403.21	637.434	1541.21	-24.4308	22.5445	-0.138587	-4.2056e-05	0.015755	0.00269506	1	12	0.140687	9.1284e-05	-6.91238e-07	-0.000459296	0.000590746	0.000268358	0.000648842	24.4308	6.17739e-08
14121.9	1454.51	635.168	1587.15	-23.5903	23.1405	-0.138597	-4.50797e-05	0.0177435	0.00284171	1	12	0.129426	8.15462e-05	-7.4159e-07	2.1919e-05	0.000577406	0.000252146	0.00063006	23.5903	-5.03517e-08
12590.9	1505.44	631.676	1632.59	-22.7627	23.5995	-0.138586	-2.83756e-05	0.020011	0.00299571	1	12	0.130242	7.9776e-05	-6.73338e-07	0.000182324	0.000564816	0.000236994	0.000612522	22.7627	6.82518e-08
11217.7	1556.35	627.069	1677.93	-21.945	24.0595	-0.138591	-4.22242e-05	0.0226256	0.00315999	1	12	0.130824	7.79677e-05	-6.18587e-07	-0.000138486	0.000552791	0.000222725	0.000595974	21.945	5.4751e-08
10002.2	1605.3	620.906	1721.2	-21.1457	24.5195	-0.138589	-4.45012e-05	0.025627	0.00333495	1	12	0.131201	7.62269e-05	-6.52264e-07	2.1919e-05	0.000541871	0.000209588	0.000580992	21.1457	-3.3677e-08
8914.93	1654.15	614.66	1764.66	-20.3844	25.0019	-0.13856	-4.63677e-05	0.0290447	0.00352383	1	12	0.131433	7.44807e-05	-6.96265e-07	0.000102121	0.000531194	0.000197385	0.000566682	20.3844	-4.40014e-08
7944	1701.76	606.396	1806.57	-19.6127	25.528	-0.138543	-5.71368e-05	0.0330388	0.00372243	1	12	0.131572	7.28297e-05	-6.64183e-07	-5.82835e-05	0.00052142	0.0001858	0.000553534	19.6127	3.20821e-08
7082.23	1747.66	598.219	1847.21	-18.896	26.1049	-0.138528	-1.47325e-05	0.0375655	0.00393984	1	12	0.131634	7.12611e-05	-7.2538e-07	-0.000138486	0.000512183	0.000175319	0.000541358	18.896	-6.11968e-08
6307.73	1792.84	589.291	1887.21	-18.1952	26.7396	-0.138525	-3.43297e-05	0.042817	0.00417482	1	12	0.131663	6.9766e-05	-7.35425e-07	0.000503134	0.000503388	0.000165459	0.000529884	18.1952	-1.00454e-08
5621.06	1836.81	579.992	1926.2	-17.5241	27.4403	-0.138516	-6.8802e-05	0.0488181	0.0044261	1	12	0.131657	6.83506e-05	-7.34771e-07	0.000182324	0.000495063	0.000156322	0.000519157	17.5241	6.54406e-10
5011.6	1878.49	570.303	1963.15	-16.8881	28.2007	-0.138528	-7.02391e-05	0.0556849	0.00469938	1	12	0.131633	6.70518e-05	-6.99761e-07	0.000182324	0.000487417	0.000147978	0.000509384	16.8881	3.50095e-08
4466.43	1918.99	561.242	1999.38	-16.3025	28.9607	-0.138527	-9.10869e-05	0.0634907	0.00500288	1	12	0.131607	6.58241e-05	-6.63623e-07	-0.000138486	0.000480046	0.000140398	0.000500156	16.3025	3.6138e-08
3981.27	1957.16	552.529	2033.65	-15.765	29.7207	-0.13853	-5.80891e-05	0.0723507	0.00534071	1	12	0.131571	6.46969e-05	-6.44227e-07	0.000262526	0.000473229	0.000133598	0.000491726	15.765	1.93967e-08
3546.6	1995.29	543.913	2068.1	-15.2482	30.4809	-0.13852	-9.93178e-05	0.0825048	0.00570682	1	12	0.131527	6.35982e-05	-6.19473e-07	0.000503134	0.000466513	0.00012717	0.000483535	15.2482	2.47537e-08
3161.01	2031.34	536.262	2100.93	-14.7884	31.2407	-0.138513	-6.19902e-05	0.0938895	0.00611711	1	12	0.131494	6.25884e-05	-6.03183e-07	-5.82835e-05	0.000460212	0.000121493	0.000475979	14.7884	1.62903e-08
2817.3	2065.8	529.201	2132.5	-14.3686	32.0009	-0.138526	-0.00011606	0.10675	0.00657399	1	12	0.131452	6.16422e-05	-6.33609e-07	-0.000138486	0.000454264	0.00011637	0.000468933	14.3686	-3.04262e-08
2510.8	2099.57	524.375	2164.06	-14.0229	32.7607	-0.138539	-8.0878e-05	0.120883	0.00709757	1	12	0.131408	6.07229e-05	-6.96956e-07	-0.000138486	0.000448323	0.00011197	0.000462094	14.0229	-6.33468e-08
2237.85	2131.29	519.676	2193.73	-13.7031	33.5209	-0.138524	-9.32149e-05	0.136853	0.00767986	1	12	0.131377	5.98873e-05	-7.38666e-07	0.000503134	0.000442869	0.000107985	0.000455844	13.7031	-4.17104e-08
1995.64	2162.46	516.854	2223.37	-13.4422	34.2807	-0.138508	-2.78165e-05	0.154302	0.00833842	1	12	0.131343	5.90738e-05	-7.36491e-07	0.000102121	0.000437447	0.000104555	0.000449768	13.4422	2.17511e-09
1778.29	2193.61	515.411	2253.35	-13.2224	35.0409	-0.138517	-7.88437e-05	0.173645	0.00908474	1	12	0.131315	5.82752e-05	-7.18438e-07	-0.000138486	0.000432018	0.000101507	0.000443783	13.2224	1.80524e-08
1585.51	2223.27	516.161	2282.4	-13.0704	35.8007	-0.138507	-4.38675e-05	0.194476	0.00994611	1	12	0.131283	5.75199e-05	-7.66969e-07	-0.000138486	0.000426785	9.90836e-05	0.000438135	13.0704	-4.85307e-08
1411.84	2253.51	519.213	2312.55	-12.9746	36.5622	-0.138522	-4.18518e-05	0.217115	0.0109446	1	12	0.131261	5.67602e-05	-7.42458e-07	2.1919e-05	0.000421383	9.70876e-05	0.000432423	12.9746	2.45115e-08
1258.79	2282.87	522.919	2341.99	-12.9017	37.3219	-0.13852	-0.000113148	0.241787	0.012054	1	12	0.131239	5.60374e-05	-7.87321e-07	-0.000298891	0.000416208	9.53375e-05	0.000426987	12.9017	-4.48632e-08
1121.79	2312.38	529.616	2372.26	-12.9002	38.0805	-0.138513	-3.95375e-05	0.267883	0.0133519	1	12	0.131219	5.53139e-05	-7.72553e-07	2.1919e-05	0.0004109	9.41103e-05	0.000421539	12.9002	1.47678e-08
1000.32	2341.98	537.254	2402.82	-12.9202	38.8397	-0.138528	-6.76081e-05	0.296143	0.0148054	1	12	0.131201	5.46031e-05	-7.5562e-07	-0.000459296	0.000405641	9.30546e-05	0.000416178	12.9202	1.69326e-08
891.427	2371.14	548.53	2433.76	-13.0254	39.5984	-0.138509	-5.99372e-05	0.325487	0.016534	1	12	0.131185	5.3902e-05	-7.38045e-07	-5.82835e-05	0.000400314	9.2607e-05	0.000410886	13.0254	1.75751e-08
794.238	2402.02	560.891	2466.63	-13.1435	40.3579	-0.138517	-0.000109229	0.357266	0.0184731	1	12	0.131169	5.31774e-05	-7.6468e-07	0.000102121	0.000394791	9.21869e-05	0.000405411	13.1435	-2.6635e-08
707.509	2431.69	575.384	2498.84	-13.3124	41.1204	-0.138508	-6.29421e-05	0.390958	0.0207286	1	12	0.131157	5.24874e-05	-7.6002e-07	-0.000218689	0.000389433	9.21471e-05	0.000400186	13.3124	4.65994e-09
631.01	2462.07	592.777	2532.42	-13.5371	41.8784	-0.138511	-6.7888e-05	0.425493	0.0233133	1	12	0.131144	5.17862e-05	-7.59798e-07	-0.000138486	0.000383909	9.24314e-05	0.000394879	13.5371	2.22064e-10
562.339	2494	613.226	2568.28	-13.8139	42.6349	-0.138518	-5.90227e-05	0.461531	0.0263122	1	12	0.131135	5.10594e-05	-8.13597e-07	0.000182324	0.000378103	9.29683e-05	0.000389365	13.8139	-5.37986e-08
501.444	2526.89	634.304	2605.29	-14.0913	43.3922	-0.138515	-5.02879e-05	0.50038	0.0296609	1	12	0.131128	5.03315e-05	-7.84876e-07	2.1919e-05	0.000372285	9.34515e-05	0.000383835	14.0913	2.87209e-08
446.859	2559.57	659.784	2643.24	-14.4546	44.1489	-0.138512	-6.48645e-05	0.539818	0.0336341	1	12	0.131115	4.9604e-05	-8.48497e-07	0.000182324	0.000366349	9.44344e-05	0.000378324	14.4546	-6.36214e-08
398.089	2593.22	687.334	2682.76	-14.845	44.9117	-0.138511	-5.76789e-05	0.581663	0.0381808	1	12	0.131108	4.88706e-05	-8.64988e-07	2.1919e-05	0.000360309	9.55003e-05	0.000372751	14.845	-1.64908e-08
354.66	2627.78	718.652	2724.27	-15.2954	45.672	-0.138511	-9.20392e-05	0.624438	0.0434536	1	12	0.131103	4.81239e-05	-9.10014e-07	0.000102121	0.000354068	9.68317e-05	0.00036707	15.2954	-4.50262e-08
316.316	2664.43	751.195	2768.3	-15.745	46.6789	-0.138516	-2.32564e-06	0.669802	0.0493202	1	13	0.131689	4.75704e-05	-9.14893e-07	-5.82835e-05	0.000347678	9.80225e-05	0.000361232	15.745	-4.87866e-09
281.894	2701.12	788.179	2813.76	-16.2671	47.4344	-0.138529	-3.77778e-06	0.716324	0.0562061	1	13	0.131635	4.67825e-05	-9.41845e-07	-0.000298891	0.000341168	9.95519e-05	0.000355396	16.2671	-2.6952e-08
251.044	2738.65	828.871	2861.34	-16.8388	48.1909	-0.138517	-1.45219e-06	0.764861	0.0641829	1	13	0.131585	4.59872e-05	-9.09262e-07	-0.000138486	0.000334502	0.000101239	0.000349487	16.8388	3.2583e-08
223.925	2776.64	873.802	2910.89	-17.4687	48.9537	-0.138521	-3.58174e-06	0.8134	0.073296	1	13	0.131539	4.51887e-05	-8.76196e-07	0.000102121	0.000327695	0.000103125	0.000343538	17.4687	3.3066e-08
199.553	2815.66	923.04	2963.1	-18.1504	49.7142	-0.138525	-2.06996e-06	0.864055	0.0838474	1	13	0.131491	4.43762e-05	-8.3935e-07	2.1919e-05	0.000320692	0.00010513	0.000337484	18.1504	3.68463e-08
177.781	2854.95	977.76	3017.74	-18.9052	50.4822	-0.138524	3.0236e-06	0.915592	0.0961173	1	13	0.131453	4.35602e-05	-8.78712e-07	-0.000619701	0.000313498	0.000107366	0.000331373	18.9052	-3.93625e-08
158.428	2895.25	1037.85	3075.65	-19.7211	51.2487	-0.138522	-5.5528e-06	0.967949	0.110217	1	13	0.131423	4.27301e-05	-8.49905e-07	-0.000218689	0.000306064	0.000109714	0.000325135	19.7211	2.88074e-08
141.311	2935.6	1103.97	3136.32	-20.6094	52.0019	-0.138522	-4.53934e-06	1.0202	0.126403	1	13	0.131385	4.18914e-05	-8.8936e-07	-0.000218689	0.000298439	0.000112232	0.000318845	20.6094	-3.94553e-08
125.846	2977.08	1177.86	3201.62	-21.5859	52.7574	-0.138518	-6.78658e-06	1.07371	0.145324	1	13	0.131356	4.10279e-05	-8.54046e-07	0.000422931	0.000290437	0.000114909	0.000312342	21.5859	3.53143e-08
112.19	3018.25	1259.31	3270.43	-22.6474	53.5028	-0.138528	-6.84632e-06	1.12651	0.167028	1	13	0.131323	4.01548e-05	-8.13773e-07	0.000342729	0.000282193	0.00011774	0.00030577	22.6474	4.02728e-08
100.032	3059.96	1350.05	3344.54	-23.807	54.2627	-0.138522	-4.34713e-06	1.1785	0.192025	1	13	0.131297	3.92569e-05	-8.21831e-07	-5.82835e-05	0.000273553	0.000120691	0.000298995	23.807	-8.05773e-09
89.116	3102.22	1451.3	3424.91	-25.0715	55.0297	-0.138521	-7.91562e-07	1.23057	0.220965	1	13	0.131277	3.833e-05	-8.57782e-07	0.000422931	0.000264468	0.000123725	0.000291978	25.0715	-3.59515e-08
79.4155	3145	1564.43	3512.61	-26.4473	55.7942	-0.138531	-1.24999e-05	1.28103	0.254103	1	13	0.13126	3.73681e-05	-8.15568e-07	-0.000379094	0.000254894	0.000126793	0.000284688	26.4473	4.22147e-08
70.8387	3187.55	1689.69	3607.7	-27.9277	56.5454	-0.138515	-3.40085e-06	1.32966	0.291673	1	13	0.131236	3.63765e-05	-8.37946e-07	-0.000138486	0.000244904	0.000129822	0.000277185	27.9277	-2.23785e-08
63.0823	3231.11	1831.36	3714.02	-29.5441	57.3258	-0.138509	-4.4349e-06	1.37765	0.334964	1	13	0.131216	3.53298e-05	-8.4593e-07	0.000342729	0.000234241	0.000132765	0.00026925	29.5441	-7.9841e-09
56.2418	3275.7	1988.34	3831.93	-31.2576	58.0693	-0.138518	-2.05743e-05	1.42322	0.383191	1	13	0.131201	3.42388e-05	-8.66029e-07	-5.82835e-05	0.000223084	0.000135411	0.000260965	31.2576	-2.00988e-08
50.1444	3319.48	2164.16	3962.64	-33.1027	58.8262	-0.138523	-3.61186e-06	1.46659	0.437439	1	13	0.131186	3.31058e-05	-8.78289e-07	0.000262526	0.000211398	0.000137823	0.000252357	33.1027	-1.22602e-08
44.6712	3365.22	2361.61	4111.19	-35.0601	59.5902	-0.138534	3.12977e-06	1.50863	0.497812	1	13	0.131168	3.19051e-05	-8.88323e-07	0.000422931	0.000199103	0.000139725	0.000243238	35.0601	-1.00333e-08
39.8089	3410.75	2583.08	4278.49	-37.138	60.3527	-0.138525	-4.20178e-06	1.54775	0.564152	1	13	0.131156	3.06547e-05	-8.46897e-07	0.000102121	0.000186324	0.00014111	0.000233727	37.138	4.14252e-08
35.4653	3459.03	2830.3	4469.39	-39.2913	61.1031	-0.138525	-3.0165e-06	1.58556	0.635846	1	13	0.131142	2.93422e-05	-9.01293e-07	-0.000138486	0.000173164	0.000141689	0.000223744	39.2913	-5.43959e-08
31.6296	3507.12	3105.22	4684.26	-41.5219	61.8275	-0.138522	-7.49793e-06	1.62044	0.712095	1	13	0.131128	2.79934e-05	-9.30531e-07	0.000262526	0.000159834	0.000141518	0.000213481	41.5219	-2.92382e-08
28.1701	3557.68	3416.99	4932.84	-43.8444	62.6328	-0.138514	-3.16595e-06	1.65344	0.79338	1	13	0.131118	2.65806e-05	-9.04211e-07	-5.82835e-05	0.000146209	0.000140427	0.000202723	43.8444	2.632e-08
25.1044	3609.45	3763.33	5214.48	-46.1957	63.3889	-0.138516	-5.88179e-06	1.6846	0.877445	1	13	0.131108	2.51431e-05	-8.91285e-07	0.000182324	0.000132745	0.000138405	0.000191774	46.1957	1.29267e-08
22.3854	3663.59	4148.39	5534.52	-48.5512	64.0754	-0.138513	-9.64278e-06	1.71386	0.962884	1	13	0.131095	2.36868e-05	-9.04372e-07	2.1919e-05	0.000119604	0.000135431	0.000180684	48.5512	-1.30873e-08
19.9553	3718.3	4581.8	5900.73	-50.9394	64.8372	-0.138524	-4.48576e-06	1.74071	1.04951	1	13	0.131084	2.22148e-05	-8.64858e-07	-0.000379094	0.00010679	0.000131591	0.000169471	50.9394	3.95139e-08
17.7961	3780.4	5063.81	6319.3	-53.2568	65.6815	-0.138518	-4.81985e-06	1.76611	1.13405	1	13	0.131079	2.07426e-05	-8.64986e-07	-5.82835e-05	9.46671e-05	0.000126806	0.000158245	53.2568	-1.27563e-10
15.8576	3844.43	5606.48	6797.96	-55.5611	66.404	-0.138516	-6.91219e-06	1.79016	1.21763	1	13	0.131073	1.92812e-05	-9.46982e-07	0.000503134	8.31906e-05	0.00012132	0.000147103	55.5611	-8.19963e-08
14.119	3913.45	6219.46	7348.25	-57.8208	67.2063	-0.138518	-4.00799e-06	1.81244	1.29838	1	13	0.131063	1.78359e-05	-9.21337e-07	2.1919e-05	7.24756e-05	0.000115182	0.000136087	57.8208	2.56447e-08
12.6008	3983.87	6890.63	7959.4	-59.9653	68.0969	-0.138515	-9.40211e-06	1.833	1.37379	1	13	0.131055	1.64654e-05	-8.68523e-07	0.000342729	6.28846e-05	0.000108767	0.000125638	59.9653	5.28144e-08
11.2249	4065.87	7654.54	8667.37	-62.0241	68.7809	-0.138524	-4.12003e-06	1.85234	1.44472	1	13	0.131056	1.51207e-05	-9.6335e-07	-5.82835e-05	5.41226e-05	0.000101893	0.000115375	62.0241	-9.48269e-08
10.0032	4150.24	8501.79	9460.71	-63.9802	69.5417	-0.138517	-5.26982e-06	1.87142	1.51128	1	13	0.131045	1.38515e-05	-9.33942e-07	0.000262526	4.63688e-05	9.49868e-05	0.0001057	63.9802	2.94083e-08
8.91838	4244.39	9445.88	10355.7	-65.8038	70.386	-0.138519	-4.35441e-06	1.88926	1.57189	1	13	0.131044	1.26543e-05	-9.13821e-07	0.000262526	3.95786e-05	8.80821e-05	9.65656e-05	65.8038	2.01204e-08
7.93953	4347.03	10514	11377.2	-67.5372	71.3247	-0.138514	-5.84482e-06	1.90659	1.62826	1	13	0.131039	1.15177e-05	-9.32356e-07	-0.000379094	3.35833e-05	8.12264e-05	8.78952e-05	67.5372	-1.85344e-08
7.07654	4462.18	11696	12518.3	-69.1175	71.883	-0.138528	-9.76441e-06	1.92292	1.6786	1	13	0.131037	1.04676e-05	-9.20139e-07	2.1919e-05	2.84744e-05	7.46358e-05	7.9883e-05	69.1175	1.22166e-08
6.31058	4603.87	13003.9	13794.8	-70.5041	72.5032	-0.138529	-1.31679e-06	1.93944	1.72342	1	13	0.131038	9.49907e-06	-8.78081e-07	0.000262526	2.4193e-05	6.83347e-05	7.24909e-05	70.5041	4.2058e-08
5.6205	4732.43	14486.6	15239.9	-71.909	73.1897	-0.138513	-1.61216e-05	1.9547	1.76621	1	13	0.131037	8.59826e-06	-8.517e-07	-0.000539499	2.03759e-05	6.23732e-05	6.5617e-05	71.909	2.63813e-08
5.01444	4883.7	16122.9	16846.3	-73.1482	73.9472	-0.138493	3.51918e-06	1.96859	1.80315	1	13	0.131029	7.77793e-06	-8.95574e-07	0.000102121	1.72084e-05	5.68111e-05	5.93602e-05	73.1482	-4.38746e-08
4.46939	5064.43	17956.3	18656.8	-74.2493	74.7885	-0.138516	-9.64969e-06	1.98315	1.83702	1	13	0.131032	7.02326e-06	-9.88104e-07	0.000102121	1.45497e-05	5.15871e-05	5.35997e-05	74.2493	-9.253e-08
3.97785	5248.41	20008.3	20685.2	-75.3018	75.7252	-0.13852	-1.25409e-05	1.99969	1.87095	1	13	0.131027	6.33434e-06	-9.56758e-07	-0.000379094	1.22662e-05	4.67618e-05	4.83438e-05	75.3018	3.13457e-08
3.55114	5476.9	22276	22939.4	-76.1869	76.7664	-0.138505	2.67318e-09	2.01194	1.89725	1	13	0.131031	5.71206e-06	-8.56426e-07	2.1919e-05	1.0408e-05	4.23323e-05	4.3593e-05	76.1869	1.00332e-07
3.1604	5727.31	24859.6	25510.8	-77.0262	77.9282	-0.138504	-1.39718e-06	2.02574	1.92364	1	13	0.131026	5.1361e-06	-9.51378e-07	2.1919e-05	8.80036e-06	3.81984e-05	3.9199e-05	77.0262	-9.49521e-08
2.81836	6002.98	27684.9	28328.2	-77.7658	79.6277	-0.138502	-2.8048e-06	2.03977	1.94817	1	14	0.131051	4.62618e-06	-9.68922e-07	2.1919e-05	7.48045e-06	3.44988e-05	3.53005e-05	77.7658	-1.75436e-08
2.51367	6320.11	30841.3	31482.2	-78.4191	81.0717	-0.138506	1.3983e-06	2.05295	1.97021	1	14	0.13104	4.16234e-06	-8.45929e-07	-0.000218689	6.37667e-06	3.11173e-05	3.1764e-05	78.4191	1.22992e-07
2.23982	6657.89	34392.8	35031.3	-79.044	82.6864	-0.138498	3.54612e-07	2.06604	1.99141	1	14	0.131041	3.74069e-06	-8.94334e-07	-0.000459296	5.42531e-06	2.80256e-05	2.85459e-05	79.044	-4.84048e-08
1.99706	7044.55	38310.8	38953.1	-79.5809	84.4896	-0.1385	2.75373e-07	2.08021	2.01218	1	14	0.131039	3.36401e-06	-9.42735e-07	2.1919e-05	4.64269e-06	2.52486e-05	2.56719e-05	79.5809	-4.84008e-08
1.77961	7500.83	42683	43337.1	-80.033	86.508	-0.138494	6.01036e-07	2.09527	2.0325	1	14	0.131036	3.02365e-06	-8.23202e-07	-0.000379094	3.99383e-06	2.27267e-05	2.30749e-05	80.033	1.19533e-07
1.58469	8002.96	47608.4	48276.4	-80.4578	88.767	-0.138499	-6.04163e-07	2.10957	2.0516	1	14	0.131034	2.71424e-06	-9.69814e-07	0.000583336	3.43385e-06	2.04275e-05	2.07141e-05	80.4578	-1.46613e-07
1.41224	8595.02	53068.2	53759.7	-80.8002	91.2962	-0.138498	-8.96702e-07	2.12363	2.06934	1	14	0.131033	2.43738e-06	-8.381e-07	0.000583336	2.97394e-06	1.8362e-05	1.86013e-05	80.8002	1.31714e-07
1.25967	9239.3	59091.8	59809.7	-81.1135	94.125	-0.1385	2.27819e-07	2.13813	2.08711	1	14	0.131032	2.19081e-06	-9.29411e-07	0.000262526	2.58282e-06	1.6519e-05	1.67197e-05	81.1135	-9.131e-08
1.12249	9985.81	65850.7	66603.5	-81.3772	97.2931	-0.138494	-8.72364e-08	2.15317	2.10477	1	14	0.131028	1.96728e-06	-8.90319e-07	0.000663539	2.25107e-06	1.48445e-05	1.50142e-05	81.3772	3.90913e-08
1.00006	10841.8	73402.2	74198.5	-81.598	100.842	-0.138497	4.70368e-07	2.16812	2.12183	1	14	0.13103	1.76594e-06	-8.7684e-07	0.000182324	1.96929e-06	1.33327e-05	1.34774e-05	81.598	1.34794e-08