File: data/DE_104_1_30_trimmed.mpt
EC-Lab ASCII FILE
Nb header lines : 59

Potentio Electrochemical Impedance Spectroscopy

Run on channel : 1 (SN 20909)
User :
CE vs. WE compliance from -10 V to 10 V
Electrode connection : standard
Ewe ctrl range : min = -10.00 V, max = 10.00 V
Acquisition started on : 05/08/2020 13:14:57
Saved on :
	File : DE_104_1_30.mpr
	Directory : P:\Chemistry\Data\VMP3\Kyler\DOE\DE_104\
	Host : 10.0.4.64
Device : VMP3 (SN 1432)
Address : USB
EC-Lab for windows v11.33 (software)
Internet server v11.32 (firmware)
Command interpretor v11.33 (firmware)
Electrode material :
Initial state :
Electrolyte :
Comments :
Electrode surface area : 0.001 cm²
Characteristic mass : 0.001 g
Equivalent Weight : 0.000 g/eq.
Density : 0.000 g/cm3
Record Analogic IN 1
Cycle Definition : Charge/Discharge alternance
Mode                Single sine
E (V)               0.0000
vs.                 Eoc
tE (h:m:s)          0:00:0.0000
record              0
dI                  1.000
unit dI             mA
dt (s)              0.000
fi                  1.000
unit fi             MHz
ff                  1.000
unit ff             Hz
Nd                  20
Points              per decade
spacing             Logarithmic
Va (mV)             128.0
pw                  0.50
Na                  3
corr                0
E range min (V)     -10.000
E range max (V)     10.000
I Range             Auto
Bandwidth           5
nc cycles           0
goto Ns'            0
nr cycles           0
inc. cycle          1

freq/Hz	Re(Z)/Ohm	-Im(Z)/Ohm	|Z|/Ohm	Phase(Z)/deg	time/s	<Ewe>/V	<I>/mA	Cs/µF	Cp/µF	cycle_number	I Range	|Ewe|/V	|I|/A	(Q-Qo)/mA.h	Analog IN 1/V	Re(Y)/Ohm-1	Im(Y)/Ohm-1	|Y|/Ohm-1	Phase(Y)/deg	dq/mA.h
1.00002e+06	380.531	431.645	575.431	-48.6011	1.60749	-0.0706656	-3.07479e-05	0.000368711	0.000207468	1	12	0.000913735	1.58791e-06	-2.27196e-08	-5.82835e-05	0.00114922	0.00130359	0.00173783	48.6011	-2.27196e-08
891247	399.593	454.895	605.479	-48.703	2.2045	-0.0701317	-2.45142e-05	0.000392564	0.000221583	1	12	0.00157022	2.59336e-06	-2.12491e-08	2.1919e-05	0.00108998	0.00124083	0.00165159	48.703	1.47046e-09
794333	428.45	494.398	654.216	-49.0875	2.80048	-0.0696794	-1.91016e-05	0.000405267	0.000231447	1	12	0.00198339	3.0317e-06	-3.7983e-08	-0.000298891	0.00100106	0.00115514	0.00152855	49.0875	-1.67339e-08
707950	458.404	534.237	703.948	-49.3687	3.39549	-0.0692489	-1.63952e-05	0.000420808	0.000242365	1	12	0.00180639	2.56608e-06	-7.74677e-08	-0.000298891	0.000925053	0.00107808	0.00142056	49.3687	-3.94847e-08
630957	489.624	583.781	761.927	-50.013	3.99048	-0.068865	-2.97398e-05	0.000432086	0.000253655	1	12	0.000749406	9.83567e-07	-6.85311e-08	0.000342729	0.000843406	0.0010056	0.00131246	50.013	8.93669e-09
562342	516.85	636.808	820.158	-50.9364	4.58548	-0.0685242	-2.86199e-05	0.000444437	0.000267938	1	12	0.00143	1.74356e-06	-4.1144e-08	-0.000218689	0.000768368	0.000946704	0.00121928	50.9364	2.7387e-08
501206	555.802	701.72	895.169	-51.6188	5.18249	-0.0682288	-1.49765e-05	0.000452522	0.000278072	1	12	0.00488216	5.4539e-06	-3.6622e-08	2.1919e-05	0.000693602	0.000875698	0.00111711	51.6188	4.52207e-09
446686	593.785	765.881	969.1	-52.2137	5.77749	-0.067977	-2.09676e-05	0.000465218	0.000290564	1	12	0.00966024	9.96826e-06	1.57414e-08	-0.000539499	0.000632255	0.000815501	0.00103189	52.2137	5.23634e-08
398103	640.895	833.978	1051.79	-52.4585	6.37349	-0.0678087	-3.21657e-05	0.000479368	0.000301383	1	12	0.0158447	1.50645e-05	7.07225e-08	2.1919e-05	0.000579332	0.000753867	0.000950758	52.4585	5.49811e-08
354810	690.045	909.2	1141.41	-52.803	6.96949	-0.067684	-2.82274e-05	0.000493361	0.000313043	1	12	0.0234338	2.05306e-05	1.46496e-08	0.000182324	0.00052966	0.000697878	0.000876113	52.803	-5.60729e-08
316230	746.749	985.773	1236.68	-52.8551	7.56448	-0.0676323	-2.32441e-05	0.000510552	0.000324398	1	12	0.0326125	2.6371e-05	3.15525e-08	-0.000379094	0.000488269	0.000644556	0.000808616	52.8551	1.6903e-08
281835	810.078	1064.7	1337.84	-52.7343	8.15948	-0.0676014	-1.98659e-05	0.000530394	0.000335928	1	12	0.0433705	3.24183e-05	4.00317e-08	-0.000138486	0.000452605	0.000594867	0.000747474	52.7343	8.4792e-09
251188	882.682	1148.67	1448.64	-52.4599	8.75449	-0.0675188	-3.75888e-06	0.000551604	0.000346812	1	12	0.0558831	3.85762e-05	-6.97964e-08	-5.82835e-05	0.000420612	0.000547359	0.000690302	52.4599	-1.09828e-07
223872	961.031	1232.96	1563.26	-52.0654	9.34948	-0.0674443	-4.44938e-06	0.000576595	0.000358682	1	12	0.0700819	4.48307e-05	-4.7703e-08	0.000503134	0.000393257	0.000504531	0.00063969	52.0654	2.20934e-08
199544	1049.65	1319.82	1686.33	-51.5048	9.94648	-0.0674863	-4.88135e-05	0.000604321	0.000370181	1	12	0.0862519	5.11478e-05	3.53074e-08	-0.000138486	0.000369115	0.000464121	0.000593005	51.5048	8.30104e-08
177832	1146.6	1408.28	1816.02	-50.8482	10.5415	-0.0674303	-1.99587e-05	0.000635509	0.000382171	1	12	0.104442	5.75113e-05	-8.99098e-08	2.1919e-05	0.000347671	0.000427019	0.000550654	50.8482	-1.25217e-07
158486	1252.97	1496.79	1952	-50.0671	11.0015	-0.0673747	-8.13656e-08	0.000670916	0.000394483	1	12	0.124615	6.38396e-05	-1.34644e-07	0.000503134	0.000328837	0.000392826	0.000512294	50.0671	-4.47346e-08
141256	1367.47	1586.13	2094.23	-49.2341	11.5965	-0.0673537	-1.66737e-05	0.000710352	0.00040748	1	12	0.129325	6.17533e-05	-2.12295e-07	0.000262526	0.000311795	0.000361654	0.000477503	49.2341	-7.76502e-08
125909	1490.61	1673.77	2241.3	-48.3128	12.1935	-0.0673165	-1.57411e-05	0.000755208	0.000421172	1	12	0.130382	5.81724e-05	-3.30429e-07	2.1919e-05	0.000296732	0.000333194	0.00044617	48.3128	-1.18134e-07
112205	1623.88	1762.89	2396.82	-47.3505	12.7895	-0.0673579	-3.65886e-05	0.000804606	0.000435273	1	12	0.130197	5.43205e-05	-2.76692e-07	-5.82835e-05	0.000282671	0.00030687	0.000417219	47.3505	5.37368e-08
100004	1766.12	1848.11	2556.3	-46.2996	13.3845	-0.0672487	-4.78617e-05	0.000861146	0.000450098	1	12	0.130093	5.08909e-05	-3.55955e-07	-0.000218689	0.000270269	0.000282816	0.00039119	46.2996	-7.92622e-08
89129.3	1917.15	1930.51	2720.72	-45.199	13.9815	-0.067196	-3.39011e-05	0.000924969	0.000465698	1	12	0.129998	4.77807e-05	-4.52893e-07	0.000342729	0.000258992	0.000260798	0.00036755	45.199	-9.69384e-08
79433.3	2075.5	2009.86	2889.16	-44.0795	14.5775	-0.0671809	-2.43825e-05	0.000996902	0.000482437	1	12	0.129654	4.4876e-05	-4.56116e-07	-0.000379094	0.000248645	0.000240782	0.000346122	44.0795	-3.22334e-09
70795	2243.86	2085.77	3063.55	-42.9089	15.1735	-0.0672233	-2.46066e-05	0.00107783	0.000499614	1	12	0.129512	4.22752e-05	-4.12296e-07	-0.000218689	0.000239081	0.000222237	0.000326419	42.9089	4.38198e-08
63093.8	2420.81	2155.92	3241.65	-41.6876	15.7695	-0.0671797	-5.45435e-05	0.00117004	0.000517527	1	12	0.129391	3.99152e-05	-4.32396e-07	2.1919e-05	0.000230371	0.000205163	0.000308484	41.6876	-2.00998e-08
56237	2602.7	2222.83	3422.72	-40.4989	16.2295	-0.0671755	-4.33825e-05	0.00127318	0.000536984	1	12	0.139728	4.08236e-05	-4.66279e-07	0.000262526	0.000222168	0.000189742	0.000292165	40.4989	-3.38831e-08
50122.5	2792.41	2279.84	3604.89	-39.2296	16.8245	-0.0671607	-2.21244e-05	0.00139278	0.000557068	1	12	0.130093	3.60878e-05	-4.99095e-07	0.000342729	0.000214879	0.000175437	0.000277401	39.2296	-3.28158e-08
44666.7	2987.45	2334.49	3791.4	-38.0053	17.2835	-0.0671698	-3.15683e-05	0.00152631	0.000578669	1	12	0.137667	3.63105e-05	-5.16154e-07	0.000342729	0.000207827	0.000162403	0.000263755	38.0053	-1.7059e-08
39814.1	3184.45	2379.09	3975.02	-36.7633	17.8785	-0.0671396	-1.69734e-05	0.00168024	0.000601889	1	12	0.129707	3.26304e-05	-5.21829e-07	-0.000138486	0.000201537	0.000150568	0.000251571	36.7633	-5.67461e-09
35481	3389.33	2418.72	4163.86	-35.5127	18.3385	-0.0671815	-3.1046e-05	0.00185455	0.000625773	1	12	0.134869	3.23904e-05	-5.13705e-07	-0.000218689	0.000195488	0.000139506	0.000240162	35.5127	8.12383e-09
31621.1	3593.65	2449.97	4349.33	-34.2843	18.7975	-0.0671616	-3.85676e-05	0.00205438	0.000651867	1	12	0.139179	3.2e-05	-4.89757e-07	0.000422931	0.000189972	0.000129514	0.00022992	34.2843	2.39479e-08
28188.1	3796.4	2471.37	4529.94	-33.0632	19.3935	-0.0671626	-4.25804e-05	0.00228463	0.000679999	1	12	0.129464	2.85796e-05	-4.97044e-07	-0.000298891	0.000185007	0.000120435	0.000220754	33.0632	-7.28656e-09
25116.9	3999.99	2490.61	4712.01	-31.9086	20.1545	-0.0671766	-9.70605e-06	0.00254418	0.000710798	1	13	0.124578	2.64383e-05	-4.81545e-07	0.000503134	0.000180155	0.000112174	0.000212224	31.9086	1.54982e-08
22389	4207.04	2501.38	4894.5	-30.7344	20.6145	-0.0671726	-3.41783e-06	0.00284188	0.000742246	1	13	0.135839	2.77535e-05	-5.10015e-07	0.000182324	0.000175615	0.000104415	0.000204311	30.7344	-2.84697e-08
19948.8	4411.88	2505.87	5073.86	-29.5958	21.2105	-0.0671744	-9.81251e-06	0.0031838	0.000776579	1	13	0.129832	2.55885e-05	-5.61323e-07	0.000102121	0.000171375	9.73379e-05	0.000197089	29.5958	-5.1308e-08
17786.9	4612.51	2503.78	5248.26	-28.4941	21.6705	-0.0671729	-8.30059e-06	0.00357375	0.000813365	1	13	0.13824	2.63403e-05	-5.51993e-07	2.1919e-05	0.000167459	9.09004e-05	0.000190539	28.4941	9.32982e-09
15847.7	4810.45	2497.29	5420.04	-27.4356	22.2665	-0.0671703	-4.50064e-06	0.00402148	0.000853724	1	13	0.129778	2.3944e-05	-5.36804e-07	2.1919e-05	0.00016375	8.50087e-05	0.0001845	27.4356	1.51888e-08
14121.9	5003.2	2487.84	5587.61	-26.4389	22.7255	-0.0671571	-7.5654e-06	0.00453007	0.000898047	1	13	0.135157	2.41887e-05	-5.23396e-07	0.000503134	0.000160249	7.9684e-05	0.000178967	26.4389	1.34083e-08
12590.9	5188.66	2474.72	5748.6	-25.4987	23.1855	-0.0671609	-5.54214e-06	0.00510782	0.000946595	1	13	0.139419	2.42527e-05	-5.47072e-07	-0.000138486	0.000157011	7.48862e-05	0.000173955	25.4987	-2.36755e-08
11217.7	5369.29	2460.17	5906.08	-24.6169	23.7805	-0.06715	-5.25846e-06	0.00576701	0.00100065	1	13	0.129462	2.19202e-05	-5.97408e-07	-0.000379094	0.000153928	7.05289e-05	0.000169317	24.6169	-5.03364e-08
10002.2	5541.93	2446.56	6057.94	-23.8197	24.2395	-0.0671545	-7.62514e-06	0.00650379	0.00106079	1	13	0.131688	2.1738e-05	-5.76772e-07	-5.82835e-05	0.000151012	6.66663e-05	0.000165073	23.8197	2.06359e-08
8914.93	5709.65	2433.89	6206.76	-23.0874	24.7219	-0.0671504	-4.29726e-06	0.00733503	0.00112791	1	13	0.133311	2.14783e-05	-5.81312e-07	-5.82835e-05	0.000148211	6.31786e-05	0.000161115	23.0874	-4.53989e-09
7944	5869.32	2424.09	6350.21	-22.4412	25.248	-0.067137	-5.74376e-06	0.00826479	0.00120435	1	13	0.134448	2.11722e-05	-5.65453e-07	0.000182324	0.00014555	6.01137e-05	0.000157475	22.4412	1.5859e-08
7082.23	6023.16	2419.33	6490.89	-21.8839	25.8249	-0.0671212	-6.35037e-06	0.00928869	0.00129044	1	13	0.135212	2.0831e-05	-5.6093e-07	-5.82835e-05	0.000142961	5.74231e-05	0.000154062	21.8839	4.52275e-09
6307.73	6172.05	2419.8	6629.45	-21.408	26.4596	-0.0671064	-3.68506e-06	0.0104272	0.00138922	1	13	0.135728	2.04735e-05	-5.78192e-07	0.000262526	0.000140435	5.50584e-05	0.000150842	21.408	-1.72616e-08
5621.06	6314.07	2427.24	6764.54	-21.0276	27.1603	-0.0671004	-5.83707e-06	0.0116651	0.00150189	1	13	0.136021	2.01079e-05	-5.68707e-07	-0.000138486	0.000137985	5.30439e-05	0.00014783	21.0276	9.48468e-09
5011.6	6451.77	2445.15	6899.57	-20.7562	27.9207	-0.0670954	-5.28087e-06	0.0129879	0.00163119	1	13	0.136182	1.97377e-05	-5.65712e-07	-0.000138486	0.00013553	5.13643e-05	0.000144936	20.7562	2.99482e-09
4466.43	6583.9	2469.46	7031.79	-20.5598	28.6807	-0.0670984	7.01111e-07	0.0144297	0.00177963	1	13	0.136256	1.93771e-05	-5.75159e-07	0.000663539	0.000133153	4.99426e-05	0.000142211	20.5598	-9.44631e-09
3981.27	6713.46	2506.42	7166.08	-20.4727	29.4407	-0.0670921	-2.24416e-06	0.0159494	0.00195114	1	13	0.136259	1.90145e-05	-5.88466e-07	0.000102121	0.000130732	4.88079e-05	0.000139546	20.4727	-1.3307e-08
3546.6	6840.29	2557.48	7302.76	-20.5	30.2009	-0.0670915	-6.78198e-07	0.0175467	0.00215202	1	13	0.136208	1.86516e-05	-6.03078e-07	0.000182324	0.000128263	4.79555e-05	0.000136934	20.5	-1.46124e-08
3161.01	6965.36	2616.53	7440.59	-20.5886	30.9607	-0.0670915	-6.72625e-07	0.0192428	0.0023796	1	13	0.136133	1.8296e-05	-6.17563e-07	-0.000138486	0.000125814	4.72618e-05	0.000134398	20.5886	-1.44854e-08
2817.3	7089.07	2693.98	7583.7	-20.8077	31.7209	-0.0670941	-5.94222e-07	0.0209697	0.00264618	1	13	0.136034	1.79376e-05	-6.24276e-07	-0.000138486	0.000123261	4.68417e-05	0.000131862	20.8077	-6.71222e-09
2510.8	7212.88	2786.71	7732.49	-21.1241	32.4807	-0.0670959	-1.29231e-06	0.0227466	0.00295434	1	13	0.13592	1.75777e-05	-6.11659e-07	0.000102121	0.000120634	4.66072e-05	0.000129324	21.1241	1.26171e-08
2237.85	7338.93	2895.87	7889.61	-21.5337	33.2409	-0.0670956	-2.2095e-07	0.0245589	0.0033087	1	13	0.135802	1.72128e-05	-5.98497e-07	0.000182324	0.000117902	4.65231e-05	0.000126749	21.5337	1.31613e-08
1995.64	7464.48	3022.69	8053.27	-22.0451	34.0007	-0.067093	-8.96618e-07	0.0263842	0.00371695	1	13	0.135684	1.68482e-05	-6.07423e-07	0.000102121	0.000115095	4.66068e-05	0.000124173	22.0451	-8.92619e-09
1778.29	7597.88	3168.04	8231.9	-22.6343	34.7609	-0.0670955	1.03702e-06	0.0282505	0.00418414	1	13	0.135564	1.64681e-05	-6.10727e-07	2.1919e-05	0.000112122	4.67509e-05	0.000121479	22.6343	-3.30387e-09
1585.51	7732	3333.9	8420.14	-23.3248	35.5207	-0.067094	-2.03519e-06	0.0301092	0.00472026	1	13	0.135452	1.60867e-05	-5.97338e-07	2.1919e-05	0.000109057	4.70234e-05	0.000118763	23.3248	1.33896e-08
1411.84	7874.67	3520.24	8625.69	-24.0862	36.2822	-0.0671013	-2.60077e-06	0.0320231	0.00533359	1	13	0.135333	1.56895e-05	-5.99266e-07	0.000422931	0.000105839	4.73134e-05	0.000115933	24.0862	-1.92826e-09
1258.79	8020.92	3731.49	8846.42	-24.9488	37.0419	-0.0670949	-4.82556e-06	0.0338832	0.00602855	1	13	0.135228	1.52861e-05	-5.87349e-07	0.000102121	0.000102492	4.76812e-05	0.00011304	24.9488	1.1917e-08
1121.79	8173.71	3967.92	9085.92	-25.8942	37.8005	-0.0670951	-2.23677e-06	0.0357556	0.00681918	1	13	0.135122	1.48716e-05	-5.98356e-07	0.000182324	9.90106e-05	4.80646e-05	0.00011006	25.8942	-1.10074e-08
1000.32	8335.29	4231.91	9348.05	-26.9173	38.5597	-0.0670924	-2.98523e-06	0.0375963	0.00770504	1	13	0.13502	1.44436e-05	-5.99695e-07	0.000342729	9.53846e-05	4.84277e-05	0.000106974	26.9173	-1.33834e-09
891.427	8505.73	4521.61	9632.88	-27.9949	39.3184	-0.0670928	-8.33229e-07	0.0394858	0.00869992	1	13	0.134929	1.40071e-05	-6.01789e-07	0.000422931	9.16641e-05	4.87283e-05	0.000103811	27.9949	-2.0948e-09
794.238	8690.73	4848.55	9951.74	-29.1571	40.0779	-0.0670964	-4.28233e-07	0.0413293	0.00981033	1	13	0.134839	1.35493e-05	-6.06006e-07	0.000422931	8.77522e-05	4.89569e-05	0.000100485	29.1571	-4.21634e-09
707.509	8884.62	5204.45	10296.7	-30.361	40.8394	-0.0670839	-3.72816e-06	0.0432228	0.0110424	1	13	0.134759	1.30876e-05	-6.01509e-07	0.000422931	8.37992e-05	4.9088e-05	9.71182e-05	30.361	4.49636e-09
631.01	9090.19	5597.31	10675.3	-31.6228	41.5975	-0.0671003	-4.43372e-06	0.0450614	0.0123881	1	13	0.134672	1.26153e-05	-5.94885e-07	-5.82835e-05	7.97655e-05	4.91158e-05	9.36745e-05	31.6228	6.62407e-09
562.339	9313.28	6027.27	11093.5	-32.9097	42.3539	-0.0670932	-6.69106e-07	0.046957	0.0138614	1	13	0.134601	1.21333e-05	-6.00121e-07	-0.000138486	7.56776e-05	4.89763e-05	9.01431e-05	32.9097	-5.23551e-09
501.444	9545.36	6499.76	11548.2	-34.2523	43.1112	-0.0670928	9.24092e-08	0.0488315	0.0154692	1	13	0.134538	1.16501e-05	-5.9175e-07	0.000262526	7.15754e-05	4.87382e-05	8.65936e-05	34.2523	8.37107e-09
446.859	9802.39	7017.78	12055.5	-35.5999	43.8679	-0.0670934	-9.60288e-07	0.0507516	0.0171979	1	13	0.134469	1.11541e-05	-6.02024e-07	0.000182324	6.74463e-05	4.82866e-05	8.29494e-05	35.5999	-1.02745e-08
398.089	10076.6	7592.09	12616.5	-36.9959	44.6307	-0.0670906	-7.15773e-07	0.0526597	0.0190687	1	13	0.134414	1.06538e-05	-6.06776e-07	2.1919e-05	6.33042e-05	4.7696e-05	7.92611e-05	36.9959	-4.75166e-09
354.66	10369.5	8219.37	13231.9	-38.4021	45.3909	-0.0670963	-3.94756e-07	0.0545971	0.0210669	1	13	0.134361	1.01543e-05	-6.08648e-07	-5.82835e-05	5.92257e-05	4.69453e-05	7.55748e-05	38.4021	-1.87245e-09
316.316	10691.3	8900.92	13911.5	-39.7787	46.1479	-0.0670971	-2.56659e-07	0.0565281	0.0231411	1	13	0.134314	9.65485e-06	-6.07754e-07	0.000102121	5.52435e-05	4.59924e-05	7.18829e-05	39.7787	8.94602e-10
281.894	11037.2	9647.25	14659.1	-41.1557	46.9034	-0.0670973	-3.08061e-06	0.0585235	0.0253469	1	13	0.134271	9.15958e-06	-6.0532e-07	0.000342729	5.13623e-05	4.48942e-05	6.82171e-05	41.1557	2.43361e-09
251.044	11410.6	10479.1	15492.4	-42.5634	47.6599	-0.0670896	-1.36907e-06	0.0604986	0.0276796	1	13	0.134231	8.66436e-06	-5.96132e-07	0.000182324	4.75415e-05	4.36606e-05	6.4548e-05	42.5634	9.18834e-09
223.925	11813	11359.1	16388.3	-43.878	48.4227	-0.06709	-2.71667e-06	0.0625709	0.0300604	1	13	0.134191	8.18822e-06	-5.88588e-07	-0.000298891	4.39837e-05	4.22939e-05	6.10192e-05	43.878	7.54436e-09
199.553	12249	12345.9	17391.3	-45.2257	49.1842	-0.0670986	-3.74698e-06	0.0646012	0.0325551	1	13	0.134167	7.71461e-06	-5.89752e-07	-5.82835e-05	4.04981e-05	4.08185e-05	5.75e-05	45.2257	-1.16424e-09
177.781	12730.4	13427.2	18502.8	-46.5258	49.9522	-0.0670937	-1.98877e-06	0.0666729	0.0351112	1	13	0.134142	7.24983e-06	-5.95787e-07	-0.000298891	3.71851e-05	3.92203e-05	5.4046e-05	46.5258	-6.03572e-09
158.428	13253.5	14597.1	19716.2	-47.7618	50.7187	-0.0670993	7.04526e-07	0.0688211	0.0377228	1	13	0.134115	6.80226e-06	-5.92218e-07	2.1919e-05	3.40944e-05	3.75506e-05	5.07196e-05	47.7618	3.56993e-09
141.311	13808.2	15868.3	21034.9	-48.9711	51.4719	-0.0670907	-1.91976e-06	0.0709762	0.0403916	1	13	0.134094	6.37484e-06	-5.98261e-07	2.1919e-05	3.12071e-05	3.58631e-05	4.75399e-05	48.9711	-6.04361e-09
125.846	14437.8	17276.9	22515.3	-50.1155	52.2274	-0.0670983	-1.4345e-06	0.0732009	0.0431013	1	13	0.134081	5.95509e-06	-5.9342e-07	-0.000379094	2.84803e-05	3.40807e-05	4.44142e-05	50.1155	4.84082e-09
112.19	15127.1	18803.5	24133	-51.1839	52.9728	-0.0670964	1.90273e-06	0.0754443	0.0458018	1	13	0.134058	5.55498e-06	-5.87222e-07	-0.000218689	2.59736e-05	3.22861e-05	4.1437e-05	51.1839	6.19863e-09
100.032	15863.9	20465.3	25893.8	-52.2186	53.7327	-0.0670965	-3.20206e-06	0.0777433	0.0485631	1	13	0.134046	5.17674e-06	-5.87622e-07	-0.000138486	2.36601e-05	3.05229e-05	3.86192e-05	52.2186	-4.00072e-10
89.116	16694.6	22288.7	27847.7	-53.1661	54.7528	-0.0670942	-3.78762e-07	0.0801272	0.0513298	1	14	0.134575	4.83255e-06	-5.85818e-07	0.000663539	2.15277e-05	2.87412e-05	3.59096e-05	53.1661	1.8035e-09
79.4155	17601.5	24271.5	29982	-54.0507	55.5173	-0.0670914	-1.06153e-06	0.0825691	0.0541117	1	14	0.134473	4.48512e-06	-5.89661e-07	0.000182324	1.95807e-05	2.70008e-05	3.33534e-05	54.0507	-3.84295e-09
70.8387	18598.9	26410.1	32301.9	-54.8455	56.2684	-0.0670912	-7.69045e-07	0.0850705	0.0568674	1	14	0.134395	4.16061e-06	-5.875e-07	0.000583336	1.78251e-05	2.53113e-05	3.09579e-05	54.8455	2.16143e-09