File: data/DE_104_10_30.mpt
EC-Lab ASCII FILE
Nb header lines : 59

Potentio Electrochemical Impedance Spectroscopy

Run on channel : 10 (SN 41749)
User :
CE vs. WE compliance from -10 V to 10 V
Electrode connection : standard
Ewe ctrl range : min = -10.00 V, max = 10.00 V
Acquisition started on : 05/08/2020 13:14:02
Saved on :
	File : DE_104_10_30.mpr
	Directory : P:\Chemistry\Data\VMP3\Kyler\DOE\DE_104\
	Host : 10.0.4.64
Device : VMP3 (SN 1432)
Address : USB
EC-Lab for windows v11.33 (software)
Internet server v11.32 (firmware)
Command interpretor v11.33 (firmware)
Electrode material :
Initial state :
Electrolyte :
Comments :
Electrode surface area : 0.001 cm²
Characteristic mass : 0.001 g
Equivalent Weight : 0.000 g/eq.
Density : 0.000 g/cm3
Record Analogic IN 1
Cycle Definition : Charge/Discharge alternance
Mode                Single sine
E (V)               0.0000
vs.                 Eoc
tE (h:m:s)          0:00:0.0000
record              0
dI                  1.000
unit dI             mA
dt (s)              0.000
fi                  1.000
unit fi             MHz
ff                  1.000
unit ff             Hz
Nd                  20
Points              per decade
spacing             Logarithmic
Va (mV)             128.0
pw                  0.50
Na                  3
corr                0
E range min (V)     -10.000
E range max (V)     10.000
I Range             Auto
Bandwidth           5
nc cycles           0
goto Ns'            0
nr cycles           0
inc. cycle          1

freq/Hz	Re(Z)/Ohm	-Im(Z)/Ohm	|Z|/Ohm	Phase(Z)/deg	time/s	<Ewe>/V	<I>/mA	Cs/µF	Cp/µF	cycle number	I Range	|Ewe|/V	|I|/A	(Q-Qo)/mA.h	Analog IN 1/V	Re(Y)/Ohm-1	Im(Y)/Ohm-1	|Y|/Ohm-1	Phase(Y)/deg	dq/mA.h
794333	390.278	523.673	653.108	-53.3039	4.10148	-0.00178358	1.14114e-05	0.000382611	0.000245984	1	12	0.00112192	1.71781e-06	-3.7547e-06	0.000585472	0.000914964	0.00122769	0.00153114	53.3039	-2.00473e-06
707950	417.907	565.725	703.343	-53.5463	4.69648	-0.00194081	1.63873e-05	0.000397386	0.000257092	1	12	0.00291781	4.14849e-06	-3.72784e-06	0.000665641	0.000844783	0.00114359	0.00142178	53.5463	2.68617e-08
630957	449.915	618.399	764.749	-53.9623	5.29248	-0.00206656	7.44205e-06	0.000407898	0.000266718	1	12	0.00547678	7.16155e-06	-3.71808e-06	0.00074581	0.000769295	0.00105738	0.00130762	53.9623	9.76323e-09
562342	482.348	677.759	831.875	-54.5613	5.88849	-0.00212817	3.01593e-05	0.000417584	0.00027719	1	12	0.00886086	1.06517e-05	-3.7018e-06	0.000505303	0.000697018	0.000979397	0.0012021	54.5613	1.62746e-08
501206	518.721	741.287	904.753	-55.0173	6.48548	-0.00217375	5.80223e-06	0.000428368	0.000287561	1	12	0.0131629	1.45486e-05	-3.69139e-06	0.000585472	0.000633685	0.000905578	0.00110527	55.0173	1.04164e-08
446686	557.46	810.795	983.946	-55.4896	7.08149	-0.00220596	-7.9488e-07	0.000439448	0.000298391	1	12	0.0184402	1.87411e-05	-3.695e-06	0.000505303	0.000575799	0.000837468	0.00101632	55.4896	-3.61667e-09
398103	601.247	887.57	1072.04	-55.886	7.67748	-0.00220204	5.22473e-06	0.000450424	0.000308746	1	12	0.0247994	2.31328e-05	-3.66158e-06	0.000425134	0.000523152	0.000772285	0.000932798	55.886	3.34223e-08
354810	649.862	966.728	1164.85	-56.0899	8.27349	-0.00221308	1.11697e-05	0.000464002	0.000319585	1	12	0.0323175	2.77438e-05	-3.67276e-06	0.00074581	0.000478937	0.000712462	0.000858477	56.0899	-1.11801e-08
316230	704.19	1051.93	1265.87	-56.2006	8.8685	-0.00224253	2.37677e-05	0.000478444	0.000330387	1	12	0.0411559	3.25119e-05	-3.6344e-06	0.000585472	0.000439449	0.000656455	0.000789968	56.2006	3.83556e-08
281835	768.127	1142.97	1377.1	-56.0972	9.46347	-0.00226814	2.53332e-05	0.000494072	0.000340354	1	12	0.0514183	3.73381e-05	-3.67931e-06	0.000986317	0.000405044	0.000602705	0.000726164	56.0972	-4.49036e-08
251188	840.702	1239.03	1497.32	-55.8425	10.0595	-0.00233296	2.48564e-06	0.000511375	0.000350165	1	12	0.0632382	4.22342e-05	-3.75313e-06	0.00074581	0.000374982	0.000552651	0.000667858	55.8425	-7.38207e-08
223872	924.346	1339.83	1627.75	-55.3984	10.6545	-0.00230982	6.23629e-05	0.000530603	0.000359498	1	12	0.0767106	4.71267e-05	-3.84985e-06	0.000425134	0.000348866	0.000505679	0.000614345	55.3984	-9.6721e-08
199544	1017.87	1441.54	1764.68	-54.7742	11.2515	-0.00237542	6.47384e-06	0.000553294	0.000369214	1	12	0.091954	5.21081e-05	-3.82186e-06	0.000505303	0.000326858	0.000462908	0.000566675	54.7742	2.79874e-08
177832	1121.6	1545.73	1909.78	-54.0348	11.8465	-0.00240567	-1.00562e-05	0.000578998	0.000379294	1	12	0.109094	5.71239e-05	-3.74933e-06	0.000505303	0.000307518	0.000423804	0.000523619	54.0348	7.25339e-08
158486	1236.81	1651.89	2063.6	-53.177	12.3055	-0.00235862	3.51098e-06	0.000607921	0.000389547	1	12	0.128109	6.20805e-05	-3.78949e-06	0.000665641	0.000290437	0.00038791	0.00048459	53.177	-4.0166e-08
141256	1362.97	1756.77	2223.49	-52.1943	12.9015	-0.00240705	-1.94957e-06	0.000641357	0.000400366	1	12	0.12983	5.83902e-05	-3.78695e-06	2.42893e-05	0.000275686	0.00035534	0.000449744	52.1943	2.5408e-09
125909	1501.06	1863.1	2392.55	-51.1423	13.4985	-0.0023897	-5.34133e-06	0.000678464	0.00041141	1	12	0.13001	5.43395e-05	-3.72518e-06	0.000585472	0.000262225	0.000325471	0.000417964	51.1423	6.17717e-08
112205	1649.98	1968	2568.17	-50.0233	14.0945	-0.00229006	4.16956e-05	0.000720747	0.000423241	1	12	0.130166	5.06843e-05	-3.79559e-06	0.000825979	0.000250169	0.000298386	0.000389383	50.0233	-7.04078e-08
100004	1809.6	2070.38	2749.75	-48.8452	14.6895	-0.00237855	-1.33735e-05	0.000768693	0.000435781	1	12	0.129855	4.72242e-05	-3.80222e-06	0.000825979	0.000239329	0.000273819	0.000363669	48.8452	-6.63055e-09
89129.3	1982.99	2167.83	2937.98	-47.5497	15.2855	-0.00236254	-1.80885e-05	0.000823712	0.000448463	1	12	0.129827	4.41894e-05	-3.86443e-06	0.000425134	0.000229733	0.000251146	0.00034037	47.5497	-6.22056e-08
79433.3	2166.09	2262.91	3132.52	-46.2523	15.8815	-0.00230143	1.06295e-05	0.000885424	0.000462059	1	12	0.129646	4.13871e-05	-3.89933e-06	-5.58797e-05	0.000220744	0.000230611	0.000319232	46.2523	-3.48998e-08
70795	2359.48	2351.16	3330.93	-44.8988	16.4765	-0.0023364	2.22456e-06	0.000956172	0.000476397	1	12	0.129413	3.88518e-05	-3.83174e-06	0.000665641	0.00021266	0.00021191	0.000300217	44.8988	6.75865e-08
63093.8	2562.99	2434.47	3534.9	-43.5268	16.9365	-0.0023427	-2.84436e-06	0.00103617	0.000491453	1	12	0.140729	3.98113e-05	-3.81297e-06	0.000264796	0.000205112	0.000194827	0.000282893	43.5268	1.87652e-08
56237	2772.83	2508.33	3739.03	-42.1327	17.5315	-0.0023354	-5.82625e-06	0.00112827	0.000507768	1	12	0.130402	3.48761e-05	-3.87776e-06	0.000585472	0.000198338	0.000179419	0.000267449	42.1327	-6.47861e-08
50122.5	2992.45	2575.04	3947.86	-40.7124	17.9915	-0.00233376	2.2431e-06	0.00123312	0.000524624	1	12	0.138964	3.52e-05	-3.89794e-06	0.000585472	0.000192001	0.000165219	0.000253302	40.7124	-2.01764e-08
44666.7	3217.49	2632.15	4156.98	-39.2858	18.5875	-0.00231482	-1.02992e-05	0.00135371	0.00054274	1	12	0.129846	3.12357e-05	-3.91481e-06	0.000104458	0.000186192	0.00015232	0.000240559	39.2858	-1.68735e-08
39814.1	3447.14	2679.63	4366.14	-37.8596	19.0475	-0.00232425	6.93901e-06	0.0014918	0.000561904	1	12	0.135832	3.11104e-05	-3.88397e-06	0.000425134	0.000180827	0.000140565	0.000229035	37.8596	3.08386e-08
35481	3681.36	2718.23	4576.15	-36.4413	19.6425	-0.00232611	-3.13765e-05	0.0016502	0.000582251	1	12	0.129288	2.82525e-05	-3.90911e-06	0.000264796	0.000175795	0.000129803	0.000218524	36.4413	-2.51411e-08
31621.1	4034.67	2656.08	4830.46	-33.3574	20.4045	-0.0023058	-8.63132e-06	0.00189497	0.000572936	1	13	0.123778	2.56244e-05	-3.89769e-06	0.000585472	0.000172915	0.000113832	0.00020702	33.3574	1.14246e-08
28188.1	4260.27	2674.61	5030.25	-32.1207	20.8645	-0.00231135	-8.54547e-06	0.00211103	0.000596808	1	13	0.137036	2.72424e-05	-3.88225e-06	0.000505303	0.000168367	0.000105701	0.000198797	32.1207	1.54331e-08
25116.9	4486.58	2685.24	5228.76	-30.9007	21.4595	-0.00228561	-1.02158e-05	0.00235978	0.000622357	1	13	0.130277	2.49156e-05	-3.89815e-06	0.000425134	0.000164104	9.82168e-05	0.00019125	30.9007	-1.58945e-08
22389	4710.12	2688.3	5423.3	-29.7155	22.0545	-0.00228294	-1.09261e-05	0.00264428	0.000649733	1	13	0.129246	2.38315e-05	-3.87063e-06	0.000104458	0.000160142	9.14008e-05	0.00018439	29.7155	2.75228e-08
19948.8	4932.2	2684.1	5615.25	-28.555	22.5145	-0.00228702	-8.20832e-06	0.00297239	0.000679148	1	13	0.138359	2.46399e-05	-3.86171e-06	0.00074581	0.000156424	8.51257e-05	0.000178087	28.555	8.91843e-09
17786.9	5148.31	2673.27	5800.99	-27.4407	23.1105	-0.00227222	-1.27845e-05	0.00334716	0.000710819	1	13	0.129923	2.23967e-05	-3.88845e-06	0.000505303	0.000152989	7.944e-05	0.000172384	27.4407	-2.67394e-08
15847.7	5361.58	2656.04	5983.4	-26.3531	23.5705	-0.00228714	-1.04097e-05	0.00378111	0.000745062	1	13	0.135878	2.27091e-05	-3.8755e-06	0.000425134	0.00014976	7.41887e-05	0.000167129	26.3531	1.2947e-08
14121.9	5568.84	2636.04	6161.22	-25.3308	24.0295	-0.00228615	-1.10155e-05	0.00427538	0.000782612	1	13	0.140701	2.28366e-05	-3.89307e-06	0.000585472	0.0001467	6.94415e-05	0.000162305	25.3308	-1.75652e-08
12590.9	5768.51	2611.5	6332.11	-24.357	24.6255	-0.00228255	-1.02569e-05	0.0048403	0.000823295	1	13	0.129618	2.047e-05	-3.89673e-06	0.000825979	0.000143869	6.51318e-05	0.000157925	24.357	-3.66736e-09
11217.7	5961.29	2584.28	6497.34	-23.4372	25.0855	-0.00227373	-1.0393e-05	0.00549006	0.000868526	1	13	0.132182	2.03441e-05	-3.88318e-06	0.000986317	0.000141211	6.12163e-05	0.000153909	23.4372	1.35488e-08
10002.2	6145.28	2557.77	6656.33	-22.5979	25.5455	-0.00227666	-7.87469e-06	0.00622102	0.000918577	1	13	0.134058	2.01399e-05	-3.87837e-06	0.000505303	0.000138699	5.77288e-05	0.000150233	22.5979	4.80903e-09
8914.93	6322.77	2530.55	6810.36	-21.8126	26.0279	-0.00226945	-1.55172e-05	0.00705486	0.000974038	1	13	0.135407	1.98826e-05	-3.89142e-06	0.000505303	0.000136322	5.45599e-05	0.000146835	21.8126	-1.30476e-08
7944	6492.62	2507.31	6959.94	-21.1155	26.554	-0.00226124	-1.49561e-05	0.00799048	0.001037	1	13	0.136357	1.95916e-05	-3.87299e-06	0.000264796	0.000134032	5.17604e-05	0.000143679	21.1155	1.8431e-08
7082.23	6653.36	2486.49	7102.8	-20.4917	27.1309	-0.00231305	1.44324e-07	0.00903782	0.00110759	1	13	0.136979	1.92853e-05	-3.8829e-06	0.000585472	0.000131881	4.92864e-05	0.00014079	20.4917	-9.91105e-09
6307.73	6808.13	2471.06	7242.71	-19.9487	27.7655	-0.00230136	-4.68164e-06	0.0102109	0.00118858	1	13	0.137397	1.89704e-05	-3.88138e-06	0.000585472	0.000129785	4.71066e-05	0.00013807	19.9487	1.52611e-09
5621.06	6954.69	2463.87	7378.23	-19.5079	28.4663	-0.00226104	2.1183e-06	0.0114917	0.00128149	1	13	0.137646	1.86556e-05	-3.86962e-06	0.000505303	0.000127753	4.52598e-05	0.000135534	19.5079	1.17561e-08
5011.6	7096.05	2463.74	7511.59	-19.147	29.2267	-0.00221606	3.38584e-06	0.0128899	0.00138668	1	13	0.137784	1.83428e-05	-3.85399e-06	0.000585472	0.000125763	4.36649e-05	0.000133128	19.147	1.56339e-08
4466.43	7230.71	2472.91	7641.89	-18.8807	29.9867	-0.00221252	9.73787e-07	0.0144096	0.00150892	1	13	0.137839	1.80373e-05	-3.83932e-06	0.000505303	0.000123817	4.23455e-05	0.000130858	18.8807	1.46641e-08
3981.27	7361.77	2494.25	7772.84	-18.717	30.7457	-0.00221887	1.04463e-06	0.0160272	0.00165036	1	13	0.137833	1.77327e-05	-3.83558e-06	0.000825979	0.000121849	4.1284e-05	0.000128653	18.717	3.73742e-09
3546.6	7489.69	2526.66	7904.39	-18.6419	31.505	-0.00222268	-1.1531e-06	0.0177608	0.00181475	1	13	0.137806	1.74341e-05	-3.83659e-06	0.000665641	0.000119875	4.04398e-05	0.000126512	18.6419	-1.00469e-09
3161.01	7613.84	2572.63	8036.73	-18.6695	32.2647	-0.00223185	1.65227e-06	0.0195711	0.00200546	1	13	0.137741	1.71389e-05	-3.82383e-06	0.000425134	0.000117881	3.98308e-05	0.000124429	18.6695	1.27601e-08
2817.3	7734.1	2632.01	8169.69	-18.794	33.024	-0.00222845	1.79393e-06	0.0214635	0.00222774	1	13	0.137663	1.68504e-05	-3.80969e-06	0.00106649	0.000115878	3.94345e-05	0.000122404	18.794	1.4139e-08
2510.8	7858.76	2706.21	8311.66	-19.0015	33.7837	-0.00221488	2.49293e-06	0.0234232	0.0024831	1	13	0.137581	1.65527e-05	-3.80411e-06	0.000425134	0.000113757	3.91729e-05	0.000120313	19.0015	5.57615e-09
2237.85	7981.28	2799.55	8458.03	-19.329	34.5439	-0.00221716	2.63272e-06	0.025404	0.00278316	1	13	0.137485	1.6255e-05	-3.81561e-06	0.000825979	0.000111567	3.91335e-05	0.000118231	19.329	-1.14914e-08
1995.64	8103.37	2905.91	8608.65	-19.7281	35.3037	-0.00220655	1.27195e-06	0.0274446	0.00312716	1	13	0.137393	1.59598e-05	-3.80255e-06	0.000344965	0.000109344	3.92113e-05	0.000116162	19.7281	1.30586e-08
1778.29	8231.28	3034.46	8772.79	-20.2364	36.063	-0.00220983	2.8433e-06	0.0294942	0.00352876	1	13	0.1373	1.56507e-05	-3.80892e-06	0.000906148	0.000106953	3.94281e-05	0.000113989	20.2364	-6.376e-09
1585.51	8361.99	3180.03	8946.25	-20.8216	36.8227	-0.00220776	1.67273e-06	0.0315661	0.00398842	1	13	0.137213	1.53375e-05	-3.79757e-06	0.000505303	0.000104479	3.97328e-05	0.000111779	20.8216	1.13553e-08
1411.84	8496.64	3347.21	9132.18	-21.5017	37.5822	-0.00221831	1.0017e-06	0.0336784	0.00452449	1	13	0.13712	1.5015e-05	-3.79101e-06	0.00130699	0.000101882	4.0136e-05	0.000109503	21.5017	6.55787e-09
1258.79	8637	3534.48	9332.22	-22.2556	38.342	-0.00220886	7.85454e-07	0.0357719	0.00513123	1	13	0.137036	1.46842e-05	-3.777e-06	0.00130699	9.91729e-05	4.0584e-05	0.000107156	22.2556	1.40129e-08
1121.79	8781.29	3746.37	9547.06	-23.1046	39.1004	-0.00222335	3.47524e-06	0.0378701	0.00583147	1	13	0.136954	1.43451e-05	-3.78716e-06	0.000665641	9.63428e-05	4.11028e-05	0.000104744	23.1046	-1.01644e-08
1000.32	8935.36	3984.35	9783.44	-24.0325	39.8597	-0.00221078	1.02588e-06	0.0399322	0.00662301	1	13	0.136873	1.39903e-05	-3.78258e-06	0.000264796	9.33531e-05	4.16269e-05	0.000102214	24.0325	4.58388e-09
891.427	9097.84	4246.11	10039.9	-25.0192	40.6174	-0.00220875	-2.0423e-06	0.0420478	0.0075208	1	13	0.136798	1.36254e-05	-3.77272e-06	0.000825979	9.02562e-05	4.2124e-05	9.96023e-05	25.0192	9.85479e-09
794.238	9269.55	4540.38	10321.8	-26.0964	41.377	-0.00221453	-1.57072e-06	0.0441344	0.00853986	1	13	0.136731	1.32468e-05	-3.78171e-06	0.000986317	8.70057e-05	4.26168e-05	9.68823e-05	26.0964	-8.98543e-09
707.509	9448.84	4865.98	10628.2	-27.2477	42.1395	-0.00221662	-1.52229e-06	0.0462293	0.00969036	1	13	0.136656	1.28579e-05	-3.76964e-06	0.000986317	8.36489e-05	4.30777e-05	9.40894e-05	27.2477	1.20694e-08
631.01	9640.52	5221.88	10963.9	-28.4426	42.8974	-0.00222158	-1.79077e-06	0.0483011	0.0109567	1	13	0.136598	1.24588e-05	-3.76005e-06	0.000344965	8.01989e-05	4.34405e-05	9.12082e-05	28.4426	9.58728e-09
562.339	9845.99	5615.23	11334.6	-29.6964	43.6539	-0.00221585	-1.55031e-06	0.0504027	0.0123701	1	13	0.136538	1.20461e-05	-3.75621e-06	0.00138716	7.66378e-05	4.3707e-05	8.82251e-05	29.6964	3.84236e-09
501.444	10062.2	6046.32	11739.1	-31.0014	44.4112	-0.00222913	1.31655e-06	0.0524936	0.0139258	1	13	0.136481	1.16262e-05	-3.75048e-06	0.000344965	7.30172e-05	4.38757e-05	8.51856e-05	31.0014	5.73155e-09
446.859	10292.9	6525.87	12187.3	-32.3754	45.1679	-0.00221708	2.93201e-07	0.0545772	0.0156485	1	13	0.136427	1.11942e-05	-3.75288e-06	0.000505303	6.92981e-05	4.39361e-05	8.20525e-05	32.3754	-2.40254e-09
398.089	10541.7	7054.28	12684.3	-33.7896	45.9307	-0.00221997	2.52443e-06	0.0566744	0.0175292	1	13	0.136385	1.07523e-05	-3.75933e-06	0.00074581	6.5521e-05	4.38453e-05	7.88379e-05	33.7896	-6.44665e-09
354.66	10810.4	7628.68	13231.1	-35.2098	46.6909	-0.00222538	-3.25963e-06	0.0588246	0.0195554	1	13	0.136339	1.03045e-05	-3.75595e-06	0.000986317	6.1752e-05	4.35771e-05	7.55795e-05	35.2098	3.37877e-09
316.316	11096.4	8256.41	13831.1	-36.6515	47.4479	-0.00222309	-2.6974e-07	0.0609408	0.021716	1	13	0.136297	9.85442e-06	-3.76151e-06	0.000344965	5.80057e-05	4.31599e-05	7.23011e-05	36.6515	-5.56353e-09
281.894	11403	8953.28	14497.9	-38.1379	48.2034	-0.00222137	2.93822e-06	0.0630597	0.0240494	1	13	0.136257	9.3984e-06	-3.75365e-06	0.000906148	5.4251e-05	4.25962e-05	6.89754e-05	38.1379	7.8579e-09
251.044	11739.1	9720.96	15241.5	-39.6277	48.9599	-0.00221695	3.50953e-07	0.0652169	0.0265292	1	13	0.136222	8.93756e-06	-3.74771e-06	0.00074581	5.05335e-05	4.18461e-05	6.56104e-05	39.6277	5.94133e-09
223.925	12093	10551.8	16049.3	-41.1066	49.7227	-0.00220903	2.9382e-06	0.0673581	0.029116	1	13	0.136195	8.48605e-06	-3.74413e-06	0.000906148	4.69483e-05	4.09651e-05	6.2308e-05	41.1066	3.57782e-09
199.553	12481.9	11462.5	16946.6	-42.5623	50.4822	-0.00221971	1.08535e-06	0.0695795	0.031833	1	13	0.136169	8.03519e-06	-3.75165e-06	0.000505303	4.34626e-05	3.99132e-05	5.9009e-05	42.5623	-7.51485e-09
177.781	12914.7	12474.6	17955.7	-44.007	51.2493	-0.00220348	3.40605e-06	0.0717639	0.0346384	1	13	0.136138	7.58191e-06	-3.74501e-06	-0.000136049	4.00572e-05	3.86922e-05	5.56926e-05	44.007	6.6425e-09
158.428	13365.9	13572.4	19048.8	-45.4391	52.0157	-0.00220888	-2.62965e-06	0.074017	0.0375757	1	13	0.136115	7.14557e-06	-3.74988e-06	0.00074581	3.68352e-05	3.74042e-05	5.24967e-05	45.4391	-4.87359e-09
141.311	13863.5	14770	20257.1	-46.8133	52.7679	-0.00221863	1.38396e-07	0.0762538	0.0405386	1	13	0.136095	6.71837e-06	-3.75097e-06	0.000425134	3.37845e-05	3.59936e-05	4.93653e-05	46.8133	-1.09357e-09
125.846	14408.4	16102.9	21607.9	-48.1787	53.5234	-0.00221762	2.48703e-06	0.0785378	0.0436172	1	13	0.136076	6.29751e-06	-3.74776e-06	0.000505303	3.08595e-05	3.44886e-05	4.62793e-05	48.1787	3.20943e-09
112.19	15001.9	17532.3	23074.7	-49.4473	54.2688	-0.00221257	9.17513e-07	0.0809146	0.0467126	1	13	0.136067	5.89681e-06	-3.74314e-06	0.000585472	2.81758e-05	3.29282e-05	4.33376e-05	49.4473	4.62405e-09
100.032	15669.7	19118.3	24719.4	-50.6613	55.0287	-0.00222122	3.49172e-06	0.0832208	0.0497799	1	13	0.13605	5.50375e-06	-3.7399e-06	0.00106649	2.5644e-05	3.12877e-05	4.0454e-05	50.6613	3.23765e-09
89.116	16382	20847.5	26513.9	-51.8397	55.7947	-0.00221818	-1.7668e-07	0.0856664	0.0529627	1	13	0.136039	5.13083e-06	-3.74243e-06	0.00074581	2.33034e-05	2.96555e-05	3.7716e-05	51.8397	-2.52233e-09
79.4155	17182.9	22746.7	28507.3	-52.9326	56.8102	-0.00221772	9.3685e-08	0.088104	0.0560948	1	14	0.1365	4.78825e-06	-3.73663e-06	0.000425134	2.11438e-05	2.79903e-05	3.50788e-05	52.9326	5.7995e-09
70.8387	18056.8	24791.6	30670.3	-53.9325	57.5614	-0.00222551	9.77789e-08	0.0906245	0.0592129	1	14	0.136418	4.44789e-06	-3.73924e-06	0.000906148	1.91957e-05	2.63553e-05	3.26048e-05	53.9325	-2.6104e-09