File: data/DE_65_7_60.mpt
EC-Lab ASCII FILE
Nb header lines : 60

Potentio Electrochemical Impedance Spectroscopy

Run on channel : 3 (SN 20921)
User :
CE vs. WE compliance from -10 V to 10 V
Electrode connection : standard
Ewe ctrl range : min = -10.00 V, max = 10.00 V
Acquisition started on : 02/20/2020 14:50:41
Technique started on : 02/20/2020 14:50:42
Saved on :
	File : DE_65_7_60.mpr
	Directory : P:\Chemistry\Data\VMP3\Kyler\DOE\DE_65\60C\
	Host : 10.0.4.64
Device : VMP3 (SN 1432)
Address : USB
EC-Lab for windows v11.33 (software)
Internet server v11.32 (firmware)
Command interpretor v11.33 (firmware)
Electrode material :
Initial state :
Electrolyte :
Comments :
Electrode surface area : 0.001 cm²
Characteristic mass : 0.001 g
Equivalent Weight : 0.000 g/eq.
Density : 0.000 g/cm3
Record Analogic IN 1
Cycle Definition : Charge/Discharge alternance
Mode                Single sine
E (V)               0.0000
vs.                 Eoc
tE (h:m:s)          0:00:0.0000
record              0
dI                  1.000
unit dI             mA
dt (s)              0.000
fi                  1.000
unit fi             MHz
ff                  1.000
unit ff             Hz
Nd                  20
Points              per decade
spacing             Logarithmic
Va (mV)             128.0
pw                  0.50
Na                  3
corr                0
E range min (V)     -10.000
E range max (V)     10.000
I Range             Auto
Bandwidth           5
nc cycles           0
goto Ns'            0
nr cycles           0
inc. cycle          1

freq/Hz	Re(Z)/Ohm	-Im(Z)/Ohm	|Z|/Ohm	Phase(Z)/deg	time/s	<Ewe>/V	<I>/mA	Cs/µF	Cp/µF	cycle number	I Range	|Ewe|/V	|I|/A	(Q-Qo)/mA.h	Analog IN 1/V	Re(Y)/Ohm-1	Im(Y)/Ohm-1	|Y|/Ohm-1	Phase(Y)/deg	dq/mA.h
1.00002e+06	116.485	80.5089	141.599	-34.6505	1.94949	-0.36876	0.000201241	0.00197683	0.000639049	1	11	0.00451799	3.19069e-05	4.07593e-08	2.67859e-06	0.00580961	0.00401534	0.00706218	34.6505	4.07593e-08
891247	123.5	79.334	146.786	-32.7158	2.54549	-0.368352	0.000125754	0.00225093	0.000657523	1	11	0.00652035	4.44207e-05	1.25791e-07	8.28454e-05	0.00573188	0.00368204	0.00681263	32.7158	8.50315e-08
794333	131.073	78.7341	152.902	-30.9928	3.14148	-0.368011	9.89147e-05	0.00254481	0.000674764	1	11	0.00922442	6.03288e-05	9.7294e-08	-7.74882e-05	0.0056064	0.00336771	0.00654012	30.9928	-2.84968e-08
707950	139.082	78.4427	159.678	-29.4232	3.73748	-0.367703	0.000164151	0.00286593	0.000691642	1	11	0.0126974	7.95187e-05	1.23915e-07	-0.000317989	0.00545483	0.00307655	0.00626261	29.4232	2.66207e-08
630957	147.022	78.1481	166.501	-27.9925	4.33348	-0.367438	0.000172912	0.00322777	0.00071106	1	11	0.0169498	0.0001018	-3.23853e-08	-0.000478322	0.00530333	0.00281894	0.00600598	27.9925	-1.563e-07
562342	154.877	77.695	173.273	-26.6409	4.92949	-0.367229	0.000191737	0.00364272	0.000732406	1	11	0.0219727	0.00012681	-4.50493e-09	-0.000398155	0.00515854	0.00258781	0.00577124	26.6409	2.78804e-08
501206	162.308	76.9851	179.64	-25.3757	5.52647	-0.367056	0.000210563	0.00412475	0.000757535	1	11	0.0277704	0.000154589	-1.04812e-07	-0.000478322	0.00502959	0.00238561	0.00556668	25.3757	-1.00307e-07
446686	169.649	75.7455	185.791	-24.06	6.12147	-0.366927	0.000172728	0.00470393	0.000781858	1	11	0.0343381	0.000184822	-1.56598e-07	-0.000478322	0.00491478	0.00219437	0.00538241	24.06	-5.17858e-08
398103	176.601	74.1372	191.532	-22.7727	6.71647	-0.366895	0.000102274	0.00539247	0.000807942	1	11	0.0417261	0.000217855	3.40981e-07	-0.000478322	0.00481408	0.00202095	0.00522107	22.7727	4.97578e-07
354810	183.232	72.1817	196.937	-21.5012	7.31247	-0.366879	0.0001608	0.00621438	0.000834825	1	11	0.0499948	0.000253862	1.89369e-07	-0.000157655	0.0047244	0.00186111	0.00507776	21.5012	-1.51611e-07
316230	189.397	69.9661	201.907	-20.275	7.90848	-0.36689	0.000145145	0.00719332	0.000863775	1	11	0.0592312	0.000293358	1.09802e-07	-0.000237822	0.00464589	0.00171626	0.00495277	20.275	-7.95677e-08
281835	195.158	67.5838	206.529	-19.1012	8.50449	-0.366885	9.22137e-05	0.00835571	0.000894764	1	11	0.0695215	0.000336619	8.8743e-08	-0.000157655	0.00457536	0.00158446	0.00484195	19.1012	-2.10586e-08
251188	200.517	65.014	210.794	-17.9643	9.09948	-0.36689	6.98486e-05	0.00974575	0.000927072	1	11	0.0809114	0.000383841	3.98018e-07	-0.000237822	0.0045127	0.00146316	0.00474397	17.9643	3.09275e-07
223872	205.399	62.4358	214.679	-16.9078	9.69547	-0.366851	0.000115701	0.0113864	0.000963107	1	11	0.0934136	0.000435131	1.2159e-06	-0.000398155	0.00445676	0.00135473	0.00465811	16.9078	8.17887e-07
199544	209.891	59.8805	218.266	-15.9231	10.2905	-0.366857	0.000163044	0.0133198	0.00100253	1	11	0.107014	0.000490293	1.8305e-06	0.000163012	0.00440578	0.00125694	0.00458158	15.9231	6.14591e-07
177832	214.05	57.3389	221.596	-14.9961	10.7495	-0.36685	8.96082e-05	0.0156085	0.00104504	1	11	0.121705	0.000549218	2.02735e-06	0.000163012	0.00435902	0.00116768	0.00451271	14.9961	1.96859e-07
158486	217.893	54.9053	224.704	-14.1431	11.2095	-0.366843	0.000122786	0.01829	0.001092	1	11	0.137481	0.000611832	2.13714e-06	-0.000237822	0.0043154	0.00108741	0.0044503	14.1431	1.09784e-07
141256	221.423	52.6079	227.587	-13.3651	11.8055	-0.366744	0.000124277	0.0214172	0.00114438	1	11	0.130104	0.000571669	2.19207e-06	-0.000638656	0.00427493	0.00101568	0.00439393	13.3651	5.49337e-08
125909	224.731	50.4454	230.323	-12.6515	12.4015	-0.366729	4.4316e-05	0.0250577	0.00120201	1	11	0.12987	0.000563859	2.11712e-06	-0.000398155	0.00423631	0.000950923	0.00434172	12.6515	-7.49518e-08
112205	227.788	48.4364	232.881	-12.0044	12.9975	-0.366676	9.35227e-05	0.0292844	0.00126681	1	11	0.12964	0.000556677	2.41221e-06	-0.000638656	0.00420013	0.000893105	0.00429403	12.0044	2.95088e-07
100004	230.6	46.6395	235.269	-11.434	13.5935	-0.366658	0.00011943	0.0341232	0.001341	1	11	0.129608	0.000550893	2.31805e-06	-7.74882e-05	0.0041661	0.000842608	0.00425046	11.434	-9.41547e-08
89129.3	233.284	44.9312	237.571	-10.9019	14.1885	-0.366645	0.000121481	0.0397421	0.00142155	1	11	0.129503	0.000545113	1.79756e-06	-0.000398155	0.0041333	0.000796088	0.00420927	10.9019	-5.20494e-07
79433.3	235.804	43.3679	239.759	-10.4211	14.7845	-0.366627	0.000150184	0.0462008	0.00151159	1	11	0.129464	0.000539977	1.66492e-06	8.28454e-05	0.00410205	0.000754428	0.00417085	10.4211	-1.32643e-07
70795	238.185	42.0083	241.861	-10.0023	15.3795	-0.366595	0.000129681	0.0535159	0.00161443	1	11	0.129285	0.000534542	1.22667e-06	8.28454e-05	0.00407176	0.000718128	0.0041346	10.0023	-4.38245e-07
63093.8	240.423	40.7998	243.86	-9.63135	15.8385	-0.366602	6.70554e-05	0.0618265	0.00173065	1	11	0.140211	0.000574966	1.24635e-06	-0.000478322	0.00404291	0.000686083	0.00410071	9.63135	1.96797e-08
56237	242.597	39.7811	245.837	-9.3125	16.4345	-0.366574	6.50043e-05	0.0711411	0.00186286	1	11	0.130313	0.000530081	2.42597e-06	8.28454e-05	0.00401413	0.000658238	0.00406774	9.3125	1.17962e-06
50122.5	244.637	38.9103	247.712	-9.03736	16.8935	-0.366567	0.000150557	0.0816063	0.00201352	1	11	0.139509	0.000563191	2.02587e-06	8.28454e-05	0.00398683	0.000634117	0.00403694	9.03736	-4.00106e-07
44666.7	246.61	38.2299	249.556	-8.81194	17.4885	-0.366552	8.86757e-05	0.0932036	0.00218728	1	11	0.130059	0.000521162	2.82744e-06	-7.74882e-05	0.00395982	0.000613858	0.00400712	8.81194	8.01571e-07
39814.1	248.505	37.7003	251.348	-8.62648	17.9485	-0.366549	7.22533e-06	0.106032	0.00238548	1	11	0.137329	0.000546368	3.31908e-06	2.67859e-06	0.00393353	0.00059675	0.00397854	8.62648	4.91637e-07
35481	250.368	37.3955	253.145	-8.49502	18.5445	-0.366552	5.77352e-05	0.119951	0.00261761	1	11	0.12958	0.000511879	3.01938e-06	-0.000718822	0.00390697	0.000583553	0.00395031	8.49502	-2.99699e-07
31621.1	252.171	37.2314	254.905	-8.39866	19.0045	-0.366541	0.000101536	0.135187	0.002884	1	11	0.135032	0.000529733	2.56479e-06	-0.000478322	0.00388096	0.000572997	0.00392303	8.39866	-4.54583e-07
28188.1	253.925	37.256	256.643	-8.34691	19.4635	-0.366539	6.53776e-05	0.151551	0.00319367	1	11	0.139847	0.000544909	2.68074e-06	-0.000718822	0.00385518	0.000565635	0.00389646	8.34691	1.15947e-07
25116.9	255.69	37.4796	258.422	-8.33915	20.0585	-0.366512	8.92342e-05	0.169067	0.00355622	1	11	0.129607	0.00050153	2.77989e-06	-0.000478322	0.00382872	0.000561222	0.00386963	8.33915	9.91518e-08
22389	257.351	37.916	260.129	-8.3812	20.5175	-0.366517	4.86028e-05	0.187483	0.00398318	1	11	0.132826	0.000510617	2.8052e-06	-0.000398155	0.00380319	0.000560331	0.00384424	8.3812	2.53123e-08
19948.8	259.024	38.5411	261.876	-8.46315	20.9775	-0.366523	7.30196e-05	0.207005	0.00448371	1	11	0.135547	0.000517599	3.21321e-06	-0.000157655	0.00377702	0.000561997	0.00381861	8.46315	4.08001e-07
17786.9	260.689	39.3882	263.648	-8.59198	21.4375	-0.366521	8.6439e-05	0.227171	0.00507034	1	11	0.137803	0.000522679	3.53673e-06	-0.000317989	0.00375037	0.000566653	0.00379293	8.59198	3.23529e-07
15847.7	262.328	40.452	265.429	-8.76618	21.8975	-0.366519	0.000123344	0.248264	0.00576632	1	11	0.139666	0.000526189	4.02486e-06	8.28454e-05	0.00372348	0.000574175	0.00376749	8.76618	4.88122e-07
14121.9	264.002	41.7593	267.285	-8.98846	22.4935	-0.366526	1.50524e-05	0.269882	0.00658769	1	11	0.129356	0.000483963	3.74341e-06	2.67859e-06	0.00369539	0.000584528	0.00374133	8.98846	-2.81443e-07
12590.9	265.614	43.3747	269.133	-9.2745	22.9525	-0.366506	8.36433e-05	0.291425	0.00756948	1	11	0.130468	0.000484774	3.30041e-06	2.67859e-06	0.00366707	0.00059883	0.00371564	9.2745	-4.43009e-07
11217.7	267.261	45.2763	271.069	-9.61513	23.4115	-0.366513	6.55638e-05	0.313361	0.00874236	1	11	0.13136	0.000484602	2.84953e-06	8.28454e-05	0.00363728	0.000616187	0.0036891	9.61513	-4.50871e-07
10002.2	268.917	47.4848	273.077	-10.0139	23.8715	-0.366511	7.28332e-05	0.335096	0.0101323	1	11	0.13206	0.000483599	2.38268e-06	-0.000237822	0.00360618	0.000636771	0.00366197	10.0139	-4.66853e-07
8914.93	270.64	49.9971	275.22	-10.4666	24.3539	-0.366499	9.01673e-05	0.357074	0.0117838	1	11	0.132621	0.000481872	2.71697e-06	-7.74882e-05	0.003573	0.000660062	0.00363346	10.4666	3.34292e-07
7944	272.351	52.9418	277.448	-11.0004	24.88	-0.366498	6.78002e-05	0.378427	0.0137789	1	11	0.133052	0.000479556	2.4991e-06	-0.000157655	0.00353805	0.000687755	0.00360427	11.0004	-2.17877e-07
7082.23	274.15	56.2582	279.863	-11.5967	25.4569	-0.36649	7.69331e-05	0.399451	0.0161416	1	11	0.133395	0.000476643	2.73988e-06	-0.000317989	0.00350024	0.000718283	0.00357318	11.5967	2.40786e-07
6307.73	275.991	60.0673	282.452	-12.2785	26.0915	-0.366481	-8.78332e-05	0.420057	0.0189975	1	11	0.13366	0.000473215	2.89769e-06	0.000403512	0.00345944	0.000752921	0.00354043	12.2785	1.57808e-07
5621.06	277.934	64.3069	285.277	-13.0275	26.7923	-0.366471	-6.71442e-05	0.440296	0.0223731	1	11	0.13386	0.000469229	2.50297e-06	8.28454e-05	0.00341515	0.000790178	0.00350537	13.0275	-3.94723e-07
5011.6	279.976	69.0584	288.367	-13.8559	27.5527	-0.366473	-0.000112437	0.459861	0.0263736	1	11	0.134007	0.000464709	2.30812e-06	2.67859e-06	0.00336689	0.000830472	0.0034678	13.8559	-1.94842e-07
4466.43	282.085	74.3934	291.73	-14.7741	28.3117	-0.366466	-5.85706e-05	0.478989	0.0311482	1	11	0.134112	0.000459712	2.64092e-06	-7.74882e-05	0.0033145	0.000874123	0.00342783	14.7741	3.32792e-07
3981.27	284.377	80.3546	295.512	-15.7784	29.0717	-0.366453	-8.9325e-05	0.497493	0.036784	1	11	0.134191	0.000454097	2.22284e-06	-0.000157655	0.00325645	0.000920156	0.00338396	15.7784	-4.18075e-07
3546.6	286.766	87.0228	299.68	-16.8811	29.8309	-0.366479	-0.000140581	0.515674	0.0434837	1	11	0.134241	0.000447948	2.29104e-06	-7.74882e-05	0.00319311	0.000968988	0.0033369	16.8811	6.81996e-08
3161.01	289.355	94.4167	304.369	-18.0716	30.5907	-0.366484	-0.000140768	0.533268	0.0513147	1	11	0.13428	0.000441173	2.58654e-06	2.67859e-06	0.00312341	0.00101917	0.00328548	18.0716	2.95496e-07
2817.3	292.135	102.589	309.624	-19.3498	31.351	-0.366477	-0.000103491	0.550662	0.0604533	1	11	0.134292	0.000433725	2.84196e-06	8.28454e-05	0.00304728	0.00107012	0.00322972	19.3498	2.55422e-07
2510.8	295.134	111.646	315.546	-20.7211	32.1107	-0.366477	-0.000137041	0.567759	0.0710766	1	11	0.134298	0.000425606	2.81931e-06	-0.000317989	0.00296412	0.00112129	0.00316912	20.7211	-2.26455e-08
2237.85	298.383	121.692	322.244	-22.1875	32.8709	-0.366481	-9.4731e-05	0.584425	0.0833451	1	11	0.134286	0.000416722	2.4119e-06	-0.000317989	0.00287346	0.0011719	0.00310324	22.1875	-4.07415e-07
1995.64	301.852	132.687	329.728	-23.7292	33.6307	-0.366478	-8.76484e-05	0.601048	0.0973318	1	11	0.134274	0.000407227	2.70418e-06	-0.000478322	0.0027764	0.00122044	0.0030328	23.7292	2.92287e-07
1778.29	305.652	144.951	338.28	-25.3719	34.391	-0.366477	-0.000157358	0.617443	0.113366	1	11	0.134257	0.000396882	2.49076e-06	-0.000237822	0.002671	0.00126668	0.00295613	25.3719	-2.1343e-07
1585.51	309.75	158.382	347.893	-27.0817	35.4017	-0.366483	1.01015e-05	0.633791	0.131361	1	12	0.138231	0.000397336	2.46503e-06	0.000243179	0.00255929	0.00130862	0.00287444	27.0817	-2.57229e-08
1411.84	314.276	173.382	358.93	-28.885	36.1632	-0.366479	2.64886e-05	0.650177	0.151712	1	12	0.137985	0.000384434	2.32231e-06	-0.000157655	0.00243945	0.00134581	0.00278606	28.885	-1.42722e-07
1258.79	319.133	189.747	371.281	-30.7345	36.9229	-0.366494	-2.96107e-05	0.666333	0.174035	1	12	0.137703	0.000370885	1.9988e-06	-0.000317989	0.00231508	0.00137648	0.00269338	30.7345	-3.2351e-07
1121.79	324.46	207.837	385.318	-32.6421	37.6814	-0.366481	1.25804e-05	0.682628	0.198605	1	12	0.1374	0.000356587	2.22225e-06	-7.74882e-05	0.00218535	0.00139985	0.00259526	32.6421	2.23445e-07
1000.32	330.257	227.676	401.131	-34.582	38.4407	-0.366477	7.02445e-06	0.698817	0.225126	1	12	0.137092	0.000341764	2.07608e-06	-0.000317989	0.00205248	0.00141496	0.00249295	34.582	-1.46163e-07
891.427	336.583	249.65	419.062	-36.565	39.1994	-0.366483	9.22383e-06	0.715161	0.25381	1	12	0.136775	0.000326384	1.92915e-06	-0.000157655	0.00191662	0.00142159	0.00238628	36.565	-1.46937e-07
794.238	343.485	273.84	439.284	-38.5632	39.959	-0.366485	-4.87784e-05	0.731768	0.284365	1	12	0.136466	0.000310656	2.12001e-06	-7.74882e-05	0.00177999	0.00141908	0.00227643	38.5632	1.9086e-07
707.509	350.975	300.485	462.033	-40.5683	40.7214	-0.366481	1.29517e-05	0.748626	0.316639	1	12	0.136167	0.000294712	1.86082e-06	-0.000478322	0.00164411	0.00140759	0.00216435	40.5683	-2.59182e-07
631.01	359.086	329.496	487.35	-42.5393	41.4794	-0.36648	-2.29947e-06	0.765481	0.349906	1	12	0.135894	0.000278842	1.64741e-06	0.000163012	0.00151188	0.00138729	0.00205191	42.5393	-2.13411e-07
562.339	367.888	361.691	515.908	-44.5134	42.2359	-0.366484	-7.46489e-06	0.7825	0.384604	1	12	0.13563	0.000262896	1.52953e-06	0.000163012	0.0013822	0.00135891	0.00193833	44.5134	-1.17878e-07
501.444	377.443	396.894	547.712	-46.4389	42.9932	-0.366482	5.93798e-06	0.799692	0.419921	1	12	0.135394	0.000247199	1.45362e-06	-7.74882e-05	0.00125819	0.00132303	0.00182578	46.4389	-7.59104e-08
446.859	387.844	435.878	583.449	-48.3373	43.7499	-0.366483	-1.25772e-06	0.817117	0.456046	1	12	0.135175	0.000231683	1.48163e-06	-0.000157655	0.00113933	0.00128044	0.00171394	48.3373	2.80024e-08
398.089	399.034	478.942	623.389	-50.2004	44.5127	-0.366481	-1.11578e-05	0.83475	0.492725	1	12	0.134983	0.000216531	1.60027e-06	-0.000558489	0.00102681	0.00123244	0.00160413	50.2004	1.18642e-07
354.66	411.252	526.478	668.062	-52.0052	45.272	-0.366477	-2.57568e-05	0.85237	0.529364	1	12	0.134805	0.000201786	1.54733e-06	-7.74882e-05	0.000921455	0.00117963	0.00149687	52.0052	-5.29357e-08
316.316	424.232	578.28	717.203	-53.7358	46.0289	-0.36648	4.40919e-06	0.870084	0.565656	1	12	0.134658	0.000187754	1.57934e-06	-7.74882e-05	0.000824744	0.00112423	0.0013943	53.7358	3.20082e-08
281.894	438.421	635.836	772.334	-55.413	46.7844	-0.366479	-1.09159e-05	0.88795	0.601823	1	12	0.134526	0.000174181	1.62507e-06	-7.74882e-05	0.000734988	0.00106594	0.00129478	55.413	4.57259e-08
251.044	453.755	699.892	834.112	-57.0438	47.5409	-0.366475	-5.24881e-06	0.905813	0.637753	1	12	0.134414	0.000161147	1.80767e-06	-0.000398155	0.000652188	0.00100596	0.00119888	57.0438	1.82601e-07
223.925	470.226	769.488	901.789	-58.5713	48.3037	-0.366475	-6.79638e-06	0.923667	0.672526	1	12	0.134313	0.000148941	1.95608e-06	0.000483679	0.000578225	0.000946219	0.00110891	58.5713	1.4841e-07
199.553	488.047	847.097	977.631	-60.052	49.0652	-0.366482	-1.62119e-05	0.941519	0.706879	1	12	0.134227	0.000137298	1.95054e-06	-0.000398155	0.000510636	0.000886304	0.00102288	60.052	-5.53869e-09
177.781	507.326	933.017	1062.03	-61.465	49.8333	-0.366477	4.22546e-05	0.959499	0.740547	1	12	0.134157	0.000126322	1.86662e-06	2.67859e-06	0.000449797	0.000827216	0.000941596	61.465	-8.3914e-08
158.428	528.267	1028.15	1155.93	-62.8058	50.5997	-0.366474	6.23421e-06	0.977078	0.773009	1	12	0.134096	0.000116007	1.92756e-06	8.28454e-05	0.000395361	0.00076948	0.000865107	62.8058	6.09384e-08
141.311	550.888	1132.29	1259.19	-64.0559	51.3519	-0.36648	1.03358e-05	0.994685	0.804301	1	12	0.134048	0.000106456	1.85416e-06	-0.000157655	0.000347441	0.000714127	0.000794162	64.0559	-7.33997e-08
125.846	575.48	1249.56	1375.71	-65.2718	52.1074	-0.366472	-1.82082e-05	1.0121	0.834998	1	12	0.134008	9.74103e-05	1.91884e-06	-0.000157655	0.000304072	0.000660242	0.000726897	65.2718	6.4681e-08
112.19	602.296	1377.79	1503.69	-66.3877	52.8528	-0.366479	-1.5505e-05	1.02963	0.864441	1	12	0.133968	8.90929e-05	1.97557e-06	-7.74882e-05	0.000266376	0.000609353	0.000665032	66.3877	5.67214e-08
100.032	631.679	1519.88	1645.92	-67.4317	53.6127	-0.366474	3.49826e-05	1.04682	0.892631	1	12	0.133942	8.13781e-05	1.93944e-06	8.28454e-05	0.000233172	0.000561036	0.000607561	67.4317	-3.61288e-08
89.116	663.258	1678.5	1804.8	-68.4386	54.3797	-0.366478	-2.88348e-06	1.064	0.920303	1	12	0.133917	7.42004e-05	1.8711e-06	2.67859e-06	0.000203623	0.000515307	0.000554079	68.4386	-6.83408e-08
79.4155	697.79	1853.67	1980.66	-69.3718	55.1442	-0.36648	-3.23769e-06	1.08114	0.946952	1	12	0.133895	6.7601e-05	1.94963e-06	-0.000237822	0.000177871	0.000472512	0.000504882	69.3718	7.8537e-08
70.8387	735.896	2046.36	2174.66	-70.2208	55.8954	-0.366481	-8.88777e-06	1.09791	0.972186	1	12	0.133878	6.1563e-05	1.92069e-06	-0.000478322	0.000155609	0.000432713	0.000459842	70.2208	-2.89443e-08
63.0823	778.588	2262.65	2392.86	-71.0114	56.6758	-0.366481	6.43768e-06	1.11505	0.997001	1	12	0.133866	5.5944e-05	1.89862e-06	-0.000638656	0.00013598	0.000395169	0.00041791	71.0114	-2.20672e-08
56.2418	823.811	2500.21	2632.44	-71.7631	57.4203	-0.366479	1.32614e-05	1.13184	1.02099	1	12	0.133855	5.08485e-05	1.89668e-06	8.28454e-05	0.000118881	0.000360795	0.000379876	71.7631	-1.94491e-09
50.1444	875.409	2764.2	2899.5	-72.4272	58.4272	-0.366484	-6.94863e-06	1.14823	1.04356	1	13	0.134204	4.62853e-05	1.89834e-06	8.28454e-05	0.000104127	0.000328792	0.000344887	72.4272	1.666e-09
44.6712	931.87	3058.23	3197.06	-73.0536	59.1912	-0.366482	-3.55872e-06	1.16499	1.06601	1	13	0.134126	4.19529e-05	1.9104e-06	-7.74882e-05	9.11705e-05	0.000299206	0.000312788	73.0536	1.20622e-08
39.8089	994.451	3382.77	3525.92	-73.618	59.9537	-0.366482	-2.43682e-06	1.18186	1.08785	1	13	0.134066	3.8023e-05	1.85675e-06	0.000163012	7.99906e-05	0.0002721	0.000283614	73.618	-5.36536e-08
35.4653	1063.7	3743.22	3891.42	-74.1365	60.7041	-0.366474	-1.87221e-06	1.19887	1.10929	1	13	0.134018	3.44395e-05	1.92695e-06	-7.74882e-05	7.02432e-05	0.000247189	0.000256976	74.1365	7.01987e-08
31.6296	1140.1	4138.97	4293.12	-74.5995	61.4285	-0.366484	-1.03092e-05	1.21572	1.12999	1	13	0.133975	3.12068e-05	1.95416e-06	-0.000478322	6.18582e-05	0.000224567	0.000232931	74.5995	2.72121e-08
28.1701	1226.13	4583.19	4744.36	-75.0226	62.2337	-0.366476	-6.5576e-06	1.23272	1.15039	1	13	0.133941	2.82315e-05	1.90964e-06	2.67859e-06	5.44728e-05	0.000203616	0.000210776	75.0226	-4.45254e-08
25.1044	1321.09	5071.2	5240.46	-75.3985	62.9899	-0.366478	-5.13952e-06	1.25014	1.17069	1	13	0.133915	2.5554e-05	1.88976e-06	-0.000157655	4.81054e-05	0.00018466	0.000190823	75.3985	-1.98815e-08
22.3854	1425.32	5609.4	5787.65	-75.7432	63.6754	-0.366483	-8.73465e-06	1.26747	1.1906	1	13	0.133894	2.31344e-05	1.92303e-06	-0.000237822	4.25508e-05	0.00016746	0.000172782	75.7432	3.32777e-08
19.9553	1543.67	6206.8	6395.88	-76.0335	64.4372	-0.366482	-6.50199e-06	1.28497	1.21012	1	13	0.133879	2.09321e-05	1.88755e-06	0.000323346	3.77359e-05	0.000151728	0.000156351	76.0335	-3.54864e-08
17.7961	1673.44	6863.89	7064.94	-76.2984	65.2815	-0.366476	-3.50243e-06	1.30294	1.22984	1	13	0.133862	1.89474e-05	1.89278e-06	0.000243179	3.3527e-05	0.000137516	0.000141544	76.2984	5.22854e-09
15.8576	1818.52	7597.16	7811.77	-76.5385	66.003	-0.366484	-4.79681e-06	1.32109	1.2495	1	13	0.13385	1.71344e-05	1.92298e-06	8.28454e-05	2.98002e-05	0.000124495	0.000128012	76.5385	3.02071e-08
14.119	1984.91	8412.6	8643.59	-76.7242	66.8053	-0.366479	-1.99763e-06	1.33994	1.26928	1	13	0.133842	1.54846e-05	1.94644e-06	0.000243179	2.65676e-05	0.000112601	0.000115693	76.7242	2.34589e-08
12.6008	2164.47	9297.71	9546.32	-76.8952	67.6958	-0.366478	-6.63444e-06	1.35846	1.28862	1	13	0.133832	1.40193e-05	1.89393e-06	-7.74882e-05	2.37508e-05	0.000102024	0.000104752	76.8952	-5.25086e-08
11.2249	2367.41	10292.1	10560.9	-77.046	68.3799	-0.366479	-5.39707e-06	1.37764	1.30841	1	13	0.13383	1.26723e-05	1.97028e-06	-0.000157655	2.12263e-05	9.22793e-05	9.46891e-05	77.046	7.63467e-08
10.0032	2595.03	11390.2	11682	-77.1653	69.1407	-0.366484	-1.70331e-06	1.39685	1.32793	1	13	0.133825	1.14556e-05	1.88641e-06	-7.74882e-05	1.90154e-05	8.34628e-05	8.56015e-05	77.1653	-8.38737e-08
8.91838	2847.51	12593.7	12911.6	-77.2593	69.985	-0.366481	-3.27158e-06	1.41704	1.34812	1	13	0.133818	1.03642e-05	1.94425e-06	-0.000237822	1.70807e-05	7.55429e-05	7.74498e-05	77.2593	5.78444e-08
7.93953	3134.65	13939.9	14288	-77.3268	70.9237	-0.366474	-4.71595e-06	1.43802	1.3688	1	13	0.133818	9.36571e-06	1.87949e-06	2.67859e-06	1.53548e-05	6.82836e-05	6.99887e-05	77.3268	-6.47563e-08
7.07654	3451.66	15422.3	15803.8	-77.3846	71.482	-0.366485	-8.40698e-06	1.45831	1.38875	1	13	0.133809	8.46686e-06	1.86983e-06	-7.74882e-05	1.38198e-05	6.17482e-05	6.32758e-05	77.3846	-9.66017e-09
6.31058	3801.45	17120.3	17537.3	-77.481	72.1022	-0.366494	5.13632e-06	1.47312	1.40391	1	13	0.133817	7.63041e-06	1.85493e-06	2.67859e-06	1.23602e-05	5.56657e-05	5.70214e-05	77.481	-1.49043e-08
5.6205	4240.65	18933.3	19402.3	-77.3753	72.7887	-0.366482	1.564e-05	1.49561	1.42417	1	13	0.13381	6.89658e-06	1.87507e-06	-0.000237822	1.12648e-05	5.02941e-05	5.15402e-05	77.3753	2.01392e-08
5.01444	4691.26	20844.1	21365.5	-77.3161	73.5462	-0.36649	1.66743e-05	1.5227	1.44929	1	13	0.133802	6.26252e-06	1.9426e-06	-0.000478322	1.02769e-05	4.56622e-05	4.68044e-05	77.3161	6.7532e-08
4.46939	5114.99	23116.7	23675.8	-77.5233	74.3875	-0.366472	-1.8524e-05	1.54044	1.46854	1	13	0.133811	5.6518e-06	1.96418e-06	-0.000398155	9.12503e-06	4.12397e-05	4.22372e-05	77.5233	2.15752e-08
3.97785	5725.91	25493.5	26128.6	-77.3413	75.3242	-0.366477	-1.62373e-05	1.56943	1.49406	1	13	0.133802	5.12091e-06	1.87772e-06	0.000163012	8.38711e-06	3.73419e-05	3.82722e-05	77.3413	-8.64552e-08
3.55114	6284.96	28142.6	28835.8	-77.411	76.6964	-0.366472	-2.5438e-06	1.59253	1.51688	1	14	0.133832	4.64115e-06	1.88746e-06	-0.000237822	7.55853e-06	3.38453e-05	3.46791e-05	77.411	9.73894e-09
3.1604	7047.55	31155.2	31942.3	-77.2538	77.8592	-0.366467	7.11018e-06	1.6164	1.53771	1	14	0.133826	4.18962e-06	1.95911e-06	0.000163012	6.90724e-06	3.05349e-05	3.13064e-05	77.2538	7.16499e-08
2.81836	7760.5	34471.9	35334.6	-77.3128	79.1546	-0.366476	-8.79824e-06	1.63817	1.55915	1	14	0.13382	3.78722e-06	1.98171e-06	-0.000398155	6.21568e-06	2.76098e-05	2.83009e-05	77.3128	2.25986e-08
2.51367	8616.2	37941.2	38907.2	-77.2055	80.5987	-0.366472	-2.18803e-06	1.66879	1.58694	1	14	0.13382	3.43947e-06	1.88257e-06	-0.000638656	5.69187e-06	2.5064e-05	2.57022e-05	77.2055	-9.9141e-08
2.23982	9672.55	41909.2	43010.9	-77.0038	82.2133	-0.36647	5.10114e-06	1.6955	1.60975	1	14	0.133815	3.11119e-06	1.99028e-06	8.28454e-05	5.22859e-06	2.26544e-05	2.32499e-05	77.0038	1.0771e-07
1.99706	10765.5	46334.3	47568.5	-76.9198	84.0167	-0.366472	-6.82122e-06	1.71999	1.6319	1	14	0.133814	2.81308e-06	1.92748e-06	0.000163012	4.75767e-06	2.04769e-05	2.10223e-05	76.9198	-6.27966e-08
1.77961	11910.8	51148.3	52516.8	-76.8912	86.0349	-0.36647	3.70761e-06	1.74849	1.65855	1	14	0.133811	2.54796e-06	1.91579e-06	0.000243179	4.31863e-06	1.85453e-05	1.90415e-05	76.8912	-1.16852e-08
1.58469	13252.8	56443.6	57978.6	-76.7865	88.294	-0.366469	-2.16818e-06	1.77935	1.68638	1	14	0.133809	2.30791e-06	1.99001e-06	2.67859e-06	3.94249e-06	1.67911e-05	1.72477e-05	76.7865	7.42123e-08
1.41224	14804.9	62206.9	63944.4	-76.613	90.8232	-0.366469	-1.78635e-06	1.81165	1.71453	1	14	0.133809	2.09258e-06	1.8743e-06	-0.000237822	3.62076e-06	1.52137e-05	1.56386e-05	76.613	-1.15711e-07
1.25967	16543.2	68569.7	70537.1	-76.436	93.6519	-0.366465	-8.40032e-07	1.84259	1.74124	1	14	0.133808	1.89699e-06	2.00331e-06	-0.000157655	3.32494e-06	1.37815e-05	1.41769e-05	76.436	1.29017e-07
1.12249	18486.3	75602.1	77829.5	-76.2596	96.8201	-0.366467	-3.4274e-07	1.87545	1.76964	1	14	0.133806	1.71922e-06	1.87863e-06	-0.000317989	3.05184e-06	1.24809e-05	1.28486e-05	76.2596	-1.2468e-07
1.00006	20689	83393.7	85921.8	-76.0669	100.369	-0.36646	5.46882e-08	1.90835	1.79771	1	14	0.133807	1.55731e-06	1.98195e-06	-0.000317989	2.80243e-06	1.12961e-05	1.16385e-05	76.0669	1.03316e-07