File: data/DE_65_9_60.mpt
EC-Lab ASCII FILE
Nb header lines : 60

Potentio Electrochemical Impedance Spectroscopy

Run on channel : 1 (SN 20909)
User :
CE vs. WE compliance from -10 V to 10 V
Electrode connection : standard
Ewe ctrl range : min = -10.00 V, max = 10.00 V
Acquisition started on : 02/20/2020 14:48:36
Technique started on : 02/20/2020 14:48:37
Saved on :
	File : DE_65_9_60.mpr
	Directory : P:\Chemistry\Data\VMP3\Kyler\DOE\DE_65\60C\
	Host : 10.0.4.64
Device : VMP3 (SN 1432)
Address : USB
EC-Lab for windows v11.33 (software)
Internet server v11.32 (firmware)
Command interpretor v11.33 (firmware)
Electrode material :
Initial state :
Electrolyte :
Comments :
Electrode surface area : 0.001 cm²
Characteristic mass : 0.001 g
Equivalent Weight : 0.000 g/eq.
Density : 0.000 g/cm3
Record Analogic IN 1
Cycle Definition : Charge/Discharge alternance
Mode                Single sine
E (V)               0.0000
vs.                 Eoc
tE (h:m:s)          0:00:0.0000
record              0
dI                  1.000
unit dI             mA
dt (s)              0.000
fi                  1.000
unit fi             MHz
ff                  1.000
unit ff             Hz
Nd                  20
Points              per decade
spacing             Logarithmic
Va (mV)             128.0
pw                  0.50
Na                  3
corr                0
E range min (V)     -10.000
E range max (V)     10.000
I Range             Auto
Bandwidth           5
nc cycles           0
goto Ns'            0
nr cycles           0
inc. cycle          1

freq/Hz	Re(Z)/Ohm	-Im(Z)/Ohm	|Z|/Ohm	Phase(Z)/deg	time/s	<Ewe>/V	<I>/mA	Cs/µF	Cp/µF	cycle number	I Range	|Ewe|/V	|I|/A	(Q-Qo)/mA.h	Analog IN 1/V	Re(Y)/Ohm-1	Im(Y)/Ohm-1	|Y|/Ohm-1	Phase(Y)/deg	dq/mA.h
1.00002e+06	73.9988	102.628	126.524	-54.2068	1.64548	-0.319789	0.000659295	0.00155077	0.00102031	1	11	0.000735569	5.81369e-06	2.53412e-07	2.1919e-05	0.00462255	0.00641092	0.00790366	54.2068	2.53412e-07
891247	84.1462	101.559	131.889	-50.3567	2.24148	-0.319275	0.000593415	0.00175835	0.00104261	1	11	0.00138061	1.04679e-05	3.14559e-07	0.000102121	0.00483744	0.00583847	0.00758212	50.3567	6.11464e-08
794333	95.1382	102.746	140.029	-47.2018	2.83649	-0.318814	0.000629061	0.00195008	0.0010499	1	11	0.00190207	1.35834e-05	3.77769e-07	-0.000218689	0.00485199	0.00524	0.00714139	47.2018	6.32106e-08
707950	105.754	103.103	147.696	-44.2726	3.4325	-0.318387	0.000596775	0.00218045	0.00106255	1	11	0.00188412	1.27567e-05	5.44047e-07	-0.000218689	0.00484796	0.00472641	0.00677065	44.2726	1.66277e-07
630957	115.795	105.733	156.806	-42.3994	4.02849	-0.317991	0.000639887	0.00238566	0.0010847	1	11	0.000913042	5.82276e-06	5.74018e-07	-0.000218689	0.00470941	0.00430019	0.00637732	42.3994	2.9971e-08
562342	127.24	104.508	164.657	-39.3976	4.62448	-0.317673	0.00059267	0.00270814	0.00109095	1	11	0.00140085	8.50766e-06	5.08266e-07	0.000262526	0.00469314	0.00385467	0.00607322	39.3976	-6.57511e-08
501206	137.668	105.74	173.59	-37.5272	5.22148	-0.317384	0.000598457	0.00300306	0.00111428	1	11	0.0053148	3.0617e-05	4.17102e-07	2.1919e-05	0.00456861	0.00350907	0.00576071	37.5272	-9.11645e-08
446686	147.887	105.765	181.816	-35.5715	5.81647	-0.317108	0.000691214	0.00336879	0.00113999	1	11	0.0108835	5.986e-05	3.60436e-07	-0.000218689	0.00447371	0.0031995	0.00550008	35.5715	-5.66662e-08
398103	157.865	105.159	189.683	-33.6688	6.41249	-0.316945	0.000771653	0.00380171	0.00116846	1	11	0.0181142	9.54974e-05	2.6511e-07	-5.82835e-05	0.00438761	0.00292272	0.00527195	33.6688	-9.53254e-08
354810	167.942	104.331	197.71	-31.8498	7.00849	-0.316829	0.000716971	0.00429945	0.00119723	1	11	0.0269299	0.000136209	6.31357e-07	-5.82835e-05	0.00429636	0.00266903	0.00505791	31.8498	3.66246e-07
316230	177.583	102.778	205.181	-30.0605	7.6045	-0.316746	0.000723129	0.00489685	0.00122869	1	11	0.0373634	0.0001821	1.14943e-06	-0.000218689	0.00421821	0.00244133	0.00487375	30.0605	5.18072e-07
281835	186.719	100.547	212.07	-28.3022	8.20049	-0.316705	0.000691032	0.00561639	0.00126252	1	11	0.0492543	0.000232255	1.4503e-06	-5.82835e-05	0.00415174	0.00223569	0.00471543	28.3022	3.00877e-07
251188	195.487	98.063	218.704	-26.6399	8.79548	-0.316695	0.000604809	0.00646125	0.00129901	1	11	0.0626087	0.000286271	2.16554e-06	-0.000459296	0.00408699	0.00205017	0.00457238	26.6399	7.15237e-07
223872	203.728	95.2143	224.88	-25.0495	9.39149	-0.316614	0.000916859	0.00746653	0.00133851	1	11	0.0772559	0.000343543	2.22097e-06	-0.000459296	0.00402856	0.00188279	0.00444682	25.0495	5.54288e-08
199544	211.436	92.0321	230.597	-23.5222	9.98848	-0.316603	0.000755796	0.00866649	0.00138043	1	11	0.0932427	0.000404353	3.25028e-06	0.000342729	0.00397622	0.00173074	0.00433657	23.5222	1.02931e-06
177832	218.743	88.7415	236.059	-22.0818	10.5845	-0.316569	0.000765128	0.0100852	0.00142527	1	11	0.110469	0.000467974	4.33383e-06	-0.000459296	0.0039255	0.00159253	0.00423624	22.0818	1.08354e-06
158486	225.502	85.4418	241.146	-20.7515	11.0435	-0.31652	0.000838662	0.0117533	0.0014755	1	11	0.128736	0.000533849	3.90458e-06	2.1919e-05	0.00387784	0.0014693	0.00414687	20.7515	-4.29246e-07
141256	231.847	82.1643	245.976	-19.5138	11.6385	-0.316504	0.000610598	0.0137129	0.00153007	1	11	0.129519	0.000526551	4.29405e-06	-5.82835e-05	0.00383192	0.00135799	0.00406544	19.5138	3.89469e-07
125909	237.764	78.8502	250.497	-18.3472	12.2355	-0.316444	0.000711751	0.016031	0.00158839	1	11	0.129992	0.000518934	4.62527e-06	-0.000138486	0.00378913	0.0012566	0.00399206	18.3472	3.31217e-07
112205	243.301	75.5893	254.772	-17.2591	12.8315	-0.316441	0.000411834	0.018765	0.00165182	1	11	0.129884	0.000509802	3.58327e-06	-0.000298891	0.00374834	0.00116454	0.00392507	17.2591	-1.04199e-06
100004	248.409	72.3499	258.73	-16.2384	13.4275	-0.316389	0.000652402	0.0219971	0.00172008	1	11	0.129872	0.000501961	4.40244e-06	-0.000619701	0.00371084	0.0010808	0.00386503	16.2384	8.19168e-07
89129.3	253.229	69.2156	262.518	-15.2874	14.0245	-0.316363	0.000650909	0.0257986	0.00179344	1	11	0.129659	0.000493907	5.45534e-06	0.000262526	0.00367448	0.00100435	0.00380927	15.2874	1.0529e-06
79433.3	257.637	66.1594	265.996	-14.402	14.6195	-0.31631	0.000729294	0.0302849	0.00187353	1	11	0.129588	0.000487182	5.77162e-06	0.000182324	0.00364132	0.000935067	0.00375946	14.402	3.16276e-07
70795	261.751	63.2719	269.29	-13.5892	15.2155	-0.316313	0.000678343	0.0355309	0.0019615	1	11	0.129373	0.000480422	6.71448e-06	-5.82835e-05	0.00360952	0.000872512	0.00371347	13.5892	9.42866e-07
63093.8	265.529	60.5513	272.346	-12.8461	15.6755	-0.31632	0.000669572	0.0416591	0.00205928	1	11	0.140664	0.00051649	7.17861e-06	0.000102121	0.0035799	0.000816361	0.0036718	12.8461	4.6413e-07
56237	269.053	57.9924	275.232	-12.1636	16.2705	-0.316302	0.00058764	0.0488008	0.00216657	1	11	0.130542	0.0004743	6.3314e-06	-0.000699904	0.00355174	0.000765551	0.0036333	12.1636	-8.47211e-07
50122.5	272.257	55.683	277.893	-11.5589	16.7295	-0.316303	0.00055554	0.0570249	0.00228957	1	11	0.139752	0.0005029	6.79908e-06	0.000342729	0.00352552	0.000721053	0.00359851	11.5589	4.67679e-07
44666.7	275.313	53.5765	280.478	-11.0122	17.3255	-0.316286	0.000655575	0.0665062	0.00242669	1	11	0.130015	0.00046355	7.02698e-06	0.000102121	0.00349969	0.000681048	0.00356535	11.0122	2.27898e-07
39814.1	278.05	51.6287	282.803	-10.519	17.7855	-0.316283	0.000621048	0.077427	0.00258052	1	11	0.137137	0.000484919	7.30857e-06	-5.82835e-05	0.00347661	0.000645541	0.00353603	10.519	2.81596e-07
35481	280.691	49.9727	285.105	-10.0949	18.3815	-0.316269	0.000662667	0.0897617	0.00275771	1	11	0.12961	0.000454605	7.95015e-06	2.1919e-05	0.00345318	0.000614786	0.00350748	10.0949	6.4158e-07
31621.1	283.135	48.5213	287.262	-9.72442	18.8415	-0.316307	0.000541729	0.103731	0.0029595	1	11	0.134844	0.00046941	8.23246e-06	2.1919e-05	0.00343112	0.000587997	0.00348114	9.72442	2.82302e-07
28188.1	285.378	47.3149	289.274	-9.41386	19.3015	-0.316295	0.000514668	0.119332	0.00319253	1	11	0.139417	0.000481956	7.97896e-06	0.000102121	0.00341038	0.000565432	0.00345694	9.41386	-2.53491e-07
25116.9	287.605	46.4218	291.327	-9.16895	19.8985	-0.316276	0.000599772	0.1365	0.00346589	1	11	0.129536	0.000444642	7.47848e-06	-0.000218689	0.00338871	0.000546967	0.00343257	9.16895	-5.0048e-07
22389	289.703	45.7511	293.294	-8.97426	20.3585	-0.316273	0.000607797	0.155376	0.00378077	1	11	0.132581	0.000452042	7.18954e-06	-0.000298891	0.00336781	0.000531858	0.00340955	8.97426	-2.88947e-07
19948.8	291.62	45.3557	295.126	-8.8404	20.8185	-0.316268	0.000572523	0.175902	0.00415452	1	11	0.135138	0.0004579	6.94239e-06	2.1919e-05	0.00334813	0.000520736	0.00338838	8.8404	-2.47151e-07
17786.9	293.423	45.2377	296.889	-8.76443	21.2785	-0.316279	0.000584654	0.197797	0.00459232	1	11	0.137218	0.000462185	6.89542e-06	-0.000298891	0.00332893	0.00051323	0.00336826	8.76443	-4.69677e-08
15847.7	295.177	45.4295	298.653	-8.74951	21.7385	-0.316281	0.000581295	0.221063	0.00511517	1	11	0.138952	0.000465263	6.62457e-06	0.000102121	0.00330941	0.000509337	0.00334837	8.74951	-2.70846e-07
14121.9	296.881	45.9041	300.409	-8.78954	22.1985	-0.316292	0.000557593	0.245514	0.00573263	1	11	0.140365	0.000467245	6.97078e-06	0.000182324	0.0032897	0.000508658	0.0033288	8.78954	3.46205e-07
12590.9	298.581	46.7647	302.221	-8.90152	22.7935	-0.316275	0.000553486	0.270299	0.00647188	1	11	0.129353	0.000428008	7.27023e-06	0.000102121	0.00326898	0.000511998	0.00330884	8.90152	2.99456e-07
11217.7	300.176	47.9139	303.976	-9.06901	23.2525	-0.316268	0.000598278	0.296111	0.00735698	1	11	0.130185	0.000428275	7.74939e-06	-0.000539499	0.00324861	0.000518541	0.00328974	9.06901	4.79158e-07
10002.2	301.787	49.4401	305.81	-9.3038	23.7125	-0.316268	0.000583907	0.321843	0.00841199	1	11	0.130822	0.000427789	8.25233e-06	0.000182324	0.00322699	0.000528659	0.00327	9.3038	5.02935e-07
8914.93	303.45	51.3954	307.772	-9.61297	24.1949	-0.316245	0.000620301	0.347359	0.00968655	1	11	0.131363	0.000426821	8.09519e-06	-5.82835e-05	0.00320354	0.000542584	0.00324916	9.61297	-1.57137e-07
7944	305.066	53.7166	309.759	-9.98638	24.721	-0.316252	0.000601451	0.372969	0.0112161	1	11	0.131763	0.000425373	8.30553e-06	-0.000539499	0.0031794	0.000559835	0.00322831	9.98638	2.10337e-07
7082.23	306.703	56.4565	311.856	-10.43	25.2979	-0.316233	0.000604437	0.398048	0.0130454	1	11	0.132071	0.0004235	8.54157e-06	-0.000379094	0.00315363	0.000580507	0.00320661	10.43	2.36046e-07
6307.73	308.417	59.7222	314.146	-10.9592	25.9316	-0.31623	0.000485552	0.422485	0.0152693	1	11	0.132331	0.000421238	8.26021e-06	0.000422931	0.00312518	0.000605162	0.00318323	10.9592	-2.81359e-07
5621.06	310.13	63.4825	316.561	-11.5684	26.6323	-0.316223	0.000505895	0.446014	0.0179367	1	11	0.132522	0.000418629	8.00765e-06	0.000342729	0.00309478	0.000633489	0.00315895	11.5684	-2.5256e-07
5011.6	311.897	67.7626	319.173	-12.2576	27.3927	-0.316221	0.000433855	0.468655	0.0211242	1	11	0.132667	0.000415657	7.81156e-06	0.000262526	0.00306167	0.000665178	0.0031331	12.2576	-1.96092e-07
4466.43	313.803	72.6237	322.097	-13.0306	28.1527	-0.316224	0.000452705	0.490661	0.0249439	1	11	0.132782	0.000412241	7.74631e-06	0.000262526	0.00302471	0.00070001	0.00310465	13.0306	-6.52577e-08
3981.27	315.807	78.0907	325.318	-13.8891	28.9127	-0.316244	0.000419111	0.511916	0.0294972	1	11	0.132874	0.000408443	8.15758e-06	-0.000379094	0.00298404	0.000737874	0.00307391	13.8891	4.1127e-07
3546.6	317.939	84.3696	328.942	-14.8617	29.6729	-0.316222	0.000458677	0.531891	0.0349908	1	11	0.132937	0.000404135	8.29377e-06	-5.82835e-05	0.00293835	0.000779733	0.00304004	14.8617	1.36194e-07
3161.01	320.201	91.3017	332.964	-15.9149	30.4327	-0.31623	0.000422657	0.551461	0.0414647	1	11	0.132987	0.000399405	8.47588e-06	-0.000379094	0.00288821	0.00082354	0.00300333	15.9149	1.8211e-07
2817.3	322.636	99.0277	337.492	-17.063	31.1929	-0.316224	0.000518585	0.570468	0.0491155	1	11	0.133013	0.000394121	8.90301e-06	0.000583336	0.00283261	0.000869422	0.00296304	17.063	4.27134e-07
2510.8	325.369	107.715	342.735	-18.3174	31.9527	-0.316246	0.000413325	0.588479	0.0581255	1	11	0.133033	0.000388152	9.15168e-06	-0.000459296	0.00276986	0.000916979	0.0029177	18.3174	2.48667e-07
2237.85	328.259	117.344	348.602	-19.6707	32.7129	-0.316226	0.000439453	0.606077	0.0686736	1	11	0.133042	0.000381644	8.95801e-06	-0.000218689	0.0027012	0.000965608	0.0028686	19.6707	-1.93672e-07
1995.64	331.421	127.839	355.222	-21.0931	33.7237	-0.316219	0.00087965	0.623842	0.0807981	1	12	0.136381	0.000383931	9.15253e-06	0.000342729	0.00262652	0.00101312	0.00281514	21.0931	1.94523e-07
1778.29	334.878	139.713	362.854	-22.6461	34.4839	-0.316231	0.000800403	0.640591	0.0949707	1	12	0.136337	0.000375736	9.16618e-06	0.000182324	0.00254345	0.00106114	0.00275593	22.6461	1.36482e-08
1585.51	338.694	152.782	371.559	-24.2798	35.2437	-0.316232	0.000849769	0.657021	0.111089	1	12	0.136232	0.00036665	9.06511e-06	0.000182324	0.00245331	0.00110667	0.00269137	24.2798	-1.01069e-07
1411.84	342.899	167.38	381.57	-26.0185	36.0052	-0.316229	0.000865951	0.673491	0.129596	1	12	0.136076	0.000356622	9.14496e-06	0.000102121	0.00235514	0.00114962	0.00262075	26.0185	7.98451e-08
1258.79	347.577	183.34	392.968	-27.8107	36.765	-0.31623	0.00080337	0.689619	0.15011	1	12	0.13589	0.000345804	9.00267e-06	-0.000138486	0.00225081	0.00118725	0.00254474	27.8107	-1.4229e-07
1121.79	352.735	201.026	405.997	-29.679	37.5234	-0.316226	0.00089221	0.705757	0.173026	1	12	0.135678	0.000334185	9.38975e-06	0.000262526	0.00213995	0.00121957	0.00246307	29.679	3.87081e-07
1000.32	358.458	220.363	420.776	-31.5812	38.2827	-0.316226	0.000878473	0.72201	0.198024	1	12	0.13545	0.000321905	9.42153e-06	0.000342729	0.00202459	0.00124462	0.00237656	31.5812	3.17836e-08
891.427	364.798	241.786	437.651	-33.5362	39.0415	-0.316221	0.000874031	0.738421	0.225377	1	12	0.135216	0.000308958	9.44867e-06	-5.82835e-05	0.00190457	0.00126234	0.00228493	33.5362	2.71415e-08
794.238	371.817	265.297	456.761	-35.5084	39.801	-0.31623	0.000808819	0.75533	0.254814	1	12	0.134981	0.000295519	9.82096e-06	-5.82835e-05	0.00178218	0.00127161	0.00218933	35.5084	3.72284e-07
707.509	379.622	291.162	478.423	-37.4875	40.5634	-0.316226	0.0008454	0.772596	0.286154	1	12	0.134741	0.000281636	9.73128e-06	-0.000860309	0.00165855	0.00127207	0.0020902	37.4875	-8.96755e-08
631.01	388.13	319.272	502.573	-39.4404	41.3215	-0.316221	0.000869644	0.789993	0.318821	1	12	0.13452	0.000267662	9.70071e-06	0.000102121	0.00153666	0.00126404	0.00198976	39.4404	-3.0571e-08
562.339	397.595	350.18	529.819	-41.3719	42.0779	-0.316224	0.000866059	0.808221	0.353068	1	12	0.134309	0.0002535	9.79869e-06	-0.000539499	0.0014164	0.00124749	0.00188744	41.3719	9.79776e-08
501.444	407.936	383.928	560.189	-43.2634	42.8352	-0.316226	0.000867047	0.826701	0.388309	1	12	0.134109	0.0002394	9.90788e-06	2.1919e-05	0.00129994	0.00122343	0.00178511	43.2634	1.09196e-07
446.859	419.366	421.109	594.307	-45.1188	43.5909	-0.316227	0.000854281	0.845775	0.424641	1	12	0.133923	0.000225344	1.00945e-05	-5.82835e-05	0.00118733	0.00119226	0.00168263	45.1188	1.86611e-07
398.089	431.85	461.909	632.34	-46.9262	44.3537	-0.316226	0.00087274	0.865533	0.461843	1	12	0.133755	0.000211524	1.01632e-05	0.000102121	0.00108002	0.00115519	0.00158143	46.9262	6.86794e-08
354.66	445.424	506.571	674.55	-48.6751	45.1129	-0.316225	0.000802134	0.885866	0.499599	1	12	0.133605	0.000198065	1.04333e-05	-0.000379094	0.000978917	0.0011133	0.00148247	48.6751	2.70124e-07
316.316	460.143	555.176	721.077	-50.3472	45.8699	-0.316225	0.000854841	0.906293	0.537237	1	12	0.133482	0.000185114	1.0531e-05	0.000583336	0.000884972	0.00106774	0.00138681	50.3472	9.76801e-08
281.894	476.012	608.684	772.712	-51.9734	46.6254	-0.316228	0.000856053	0.927559	0.57556	1	12	0.133358	0.000172585	1.07056e-05	-5.82835e-05	0.000797228	0.00101943	0.00129414	51.9734	1.74668e-07
251.044	493.376	667.81	830.295	-53.5431	47.3819	-0.316228	0.000841813	0.949329	0.614126	1	12	0.133255	0.000160491	1.07082e-05	-0.000379094	0.00071567	0.000968697	0.00120439	53.5431	2.57237e-09
223.925	511.652	731.869	892.984	-55.0425	48.1447	-0.316226	0.000846628	0.971144	0.652324	1	12	0.133175	0.000149135	1.07361e-05	0.000342729	0.000641634	0.000917796	0.00111984	55.0425	2.78805e-08
199.553	531.566	802.784	962.821	-56.4894	48.9062	-0.31623	0.000854074	0.993489	0.690668	1	12	0.133095	0.000138234	1.08575e-05	-0.000379094	0.000573411	0.00086598	0.00103861	56.4894	1.21425e-07
177.781	552.977	880.995	1040.16	-57.8846	49.6742	-0.316224	0.000897448	1.01616	0.728964	1	12	0.133025	0.000127888	1.11014e-05	-0.000138486	0.0005111	0.000814277	0.000961389	57.8846	2.43853e-07
158.428	575.938	967.095	1125.6	-59.2247	50.4407	-0.31622	0.000867866	1.03877	0.766809	1	12	0.13297	0.000118133	1.12533e-05	0.000503134	0.000454577	0.000763309	0.000888415	59.2247	1.51917e-07
141.311	600.674	1061.18	1219.39	-60.4883	51.1939	-0.316224	0.000874585	1.06134	0.803797	1	12	0.132928	0.000109012	1.15174e-05	-0.000218689	0.000403972	0.000713679	0.00082008	60.4883	2.64142e-07
125.846	627.508	1166.65	1324.7	-61.7255	51.9494	-0.316225	0.000850732	1.08403	0.840785	1	12	0.132884	0.000100312	1.16179e-05	-0.000138486	0.000357587	0.000664818	0.000754885	61.7255	1.00481e-07
112.19	656.362	1281.71	1439.99	-62.883	52.6949	-0.316228	0.00085635	1.10682	0.876867	1	12	0.132853	9.22597e-05	1.16889e-05	-0.000138486	0.000316536	0.000618112	0.000694448	62.883	7.10078e-08
100.032	687.052	1409.06	1567.64	-64.0063	53.4547	-0.31622	0.000832852	1.12915	0.91226	1	12	0.132822	8.47274e-05	1.18448e-05	-0.000138486	0.000279575	0.000573373	0.000637902	64.0063	1.5587e-07
89.116	721.245	1550.37	1709.93	-65.0518	54.2217	-0.316222	0.000847633	1.15194	0.94699	1	12	0.132803	7.76658e-05	1.20703e-05	-0.000539499	0.000246676	0.00053025	0.00058482	65.0518	2.25493e-07
79.4155	757.096	1706.46	1866.87	-66.0749	54.9862	-0.316214	0.00086165	1.17441	0.981257	1	12	0.132782	7.11254e-05	1.21974e-05	-0.000218689	0.000217231	0.00048963	0.000535656	66.0749	1.27135e-07
70.8387	796.936	1877.64	2039.76	-67.0019	55.7374	-0.316219	0.000849481	1.19657	1.01392	1	12	0.132768	6.50901e-05	1.24072e-05	0.000102121	0.000191542	0.000451287	0.000490254	67.0019	2.09744e-07
63.0823	840.438	2070.08	2234.18	-67.9032	56.5179	-0.316223	0.000823127	1.21878	1.04632	1	12	0.132752	5.94185e-05	1.25807e-05	-5.82835e-05	0.000168371	0.000414715	0.000447591	67.9032	1.73582e-07
56.2418	887.422	2279.95	2446.56	-68.7326	57.2623	-0.316218	0.000850432	1.24118	1.07788	1	12	0.132741	5.42562e-05	1.28001e-05	-0.000218689	0.000148257	0.0003809	0.000408736	68.7326	2.19397e-07
50.1444	937.924	2512.64	2681.99	-69.5303	58.0192	-0.316222	0.000833821	1.26319	1.1087	1	12	0.132728	4.94887e-05	1.30107e-05	-0.000298891	0.000130393	0.000349314	0.000372858	69.5303	2.10544e-07
44.6712	994.472	2772.12	2945.1	-70.2651	59.0352	-0.316226	0.000889732	1.28523	1.13868	1	13	0.133025	4.51681e-05	1.31322e-05	0.000422931	0.000114654	0.000319603	0.000339546	70.2651	1.21549e-07
39.8089	1055.81	3058.39	3235.51	-70.9544	59.7977	-0.316224	0.000895892	1.30721	1.16801	1	13	0.132965	4.10954e-05	1.33774e-05	2.1919e-05	0.000100856	0.000292152	0.00030907	70.9544	2.45122e-07
35.4653	1123.88	3376.25	3558.4	-71.5886	60.5481	-0.316218	0.000898973	1.32917	1.19658	1	13	0.132918	3.73533e-05	1.34806e-05	-5.82835e-05	8.87585e-05	0.000266641	0.000281025	71.5886	1.03239e-07
31.6296	1196.85	3724.18	3911.77	-72.1839	61.2724	-0.316223	0.000895425	1.35113	1.22465	1	13	0.13287	3.39668e-05	1.36457e-05	0.000262526	7.82159e-05	0.000243379	0.000255639	72.1839	1.65125e-07
28.1701	1278.87	4114.26	4308.44	-72.7327	62.0777	-0.316218	0.000900991	1.37322	1.25223	1	13	0.132837	3.08319e-05	1.39234e-05	0.000422931	6.88949e-05	0.000221642	0.000232103	72.7327	2.77695e-07
25.1044	1368.96	4543.03	4744.8	-73.2308	62.8339	-0.316219	0.000898223	1.39548	1.27932	1	13	0.132807	2.79899e-05	1.41326e-05	0.000102121	6.0807e-05	0.000201794	0.000210757	73.2308	2.09195e-07
22.3854	1466.75	5015.37	5225.44	-73.6984	63.5205	-0.316221	0.00089722	1.4176	1.30591	1	13	0.132786	2.54114e-05	1.42384e-05	-0.000138486	5.37168e-05	0.000183678	0.000191371	73.6984	1.05807e-07
19.9553	1575.53	5540.37	5760.04	-74.1257	64.2822	-0.316222	0.000907715	1.43954	1.33183	1	13	0.132768	2.30499e-05	1.44576e-05	2.1919e-05	4.74872e-05	0.000166989	0.00017361	74.1257	2.19203e-07
17.7961	1694.38	6118.75	6349.02	-74.5217	65.1266	-0.316222	0.000905558	1.46161	1.35751	1	13	0.132752	2.0909e-05	1.46621e-05	0.000342729	4.20338e-05	0.000151792	0.000157505	74.5217	2.04451e-07
15.8576	1827.46	6761.66	7004.26	-74.8761	65.849	-0.316217	0.000904167	1.48433	1.38329	1	13	0.132742	1.89516e-05	1.48371e-05	0.000102121	3.72497e-05	0.000137825	0.00014277	74.8761	1.75039e-07
14.119	1978.19	7478.03	7735.26	-75.1827	66.6513	-0.316217	0.000898286	1.5074	1.40882	1	13	0.13273	1.71591e-05	1.4993e-05	-0.000138486	3.30612e-05	0.000124979	0.000129278	75.1827	1.55888e-07
12.6008	2137.46	8256.42	8528.61	-75.4857	67.5418	-0.316219	0.000903627	1.52978	1.4337	1	13	0.132724	1.55623e-05	1.52677e-05	2.1919e-05	2.9386e-05	0.00011351	0.000117252	75.4857	2.74653e-07
11.2249	2317.73	9128.59	9418.23	-75.7538	68.2259	-0.316224	0.000902444	1.55323	1.45917	1	13	0.132715	1.40913e-05	1.53664e-05	2.1919e-05	2.6129e-05	0.000102912	0.000106177	75.7538	9.87033e-08
10.0032	2519.69	10094.7	10404.4	-75.985	68.9867	-0.31621	0.000903551	1.57612	1.48368	1	13	0.132713	1.27555e-05	1.56598e-05	-0.000138486	2.32763e-05	9.32521e-05	9.61132e-05	75.985	2.93403e-07
8.91838	2740.17	11154.8	11486.4	-76.1986	69.831	-0.316218	0.000895659	1.59983	1.50878	1	13	0.132709	1.15535e-05	1.57854e-05	0.000182324	2.07686e-05	8.45457e-05	8.70593e-05	76.1986	1.25674e-07
7.93953	2991.81	12343.4	12700.8	-76.3753	70.7697	-0.316225	0.00088991	1.62402	1.5339	1	13	0.132701	1.04483e-05	1.61061e-05	-0.000298891	1.8547e-05	7.65196e-05	7.87353e-05	76.3753	3.20689e-07
7.07654	3265.85	13637.3	14022.9	-76.5325	71.328	-0.316237	0.000884636	1.6492	1.55974	1	13	0.132702	9.46329e-06	1.62508e-05	0.000583336	1.66082e-05	6.93512e-05	7.13121e-05	76.5325	1.4465e-07
6.31058	3584.64	15174.1	15591.7	-76.7084	71.9482	-0.316209	0.000845491	1.66207	1.57422	1	13	0.132707	8.5114e-06	1.64076e-05	0.000262526	1.47454e-05	6.24185e-05	6.41366e-05	76.7084	1.56809e-07
5.6205	3937.63	16709	17166.7	-76.7397	72.6347	-0.316231	0.000864193	1.6947	1.60554	1	13	0.132699	7.72999e-06	1.65401e-05	0.000262526	1.33616e-05	5.66991e-05	5.82522e-05	76.7397	1.32477e-07
5.01444	4328.92	18436.5	18937.9	-76.7862	73.3922	-0.31621	0.000873377	1.72155	1.6316	1	13	0.132694	7.0068e-06	1.66504e-05	0.000182324	1.20703e-05	5.14062e-05	5.28043e-05	76.7862	1.1034e-07
4.46939	4725.37	20437.9	20977.1	-76.9816	74.2335	-0.316231	0.000913829	1.74235	1.65394	1	13	0.132699	6.3259e-06	1.68542e-05	-5.82835e-05	1.07386e-05	4.64459e-05	4.76711e-05	76.9816	2.03799e-07
3.97785	5238.08	22551.9	23152.3	-76.9239	75.1702	-0.316229	0.000908114	1.77414	1.68333	1	13	0.132696	5.73145e-06	1.71842e-05	0.000503134	9.77204e-06	4.20724e-05	4.31923e-05	76.9239	3.30023e-07
3.55114	5743.62	24927.2	25580.3	-77.0246	76.2114	-0.316219	0.00089049	1.79796	1.70732	1	13	0.132694	5.18734e-06	1.74249e-05	-0.000218689	8.77756e-06	3.80944e-05	3.90926e-05	77.0246	2.40651e-07
3.1604	6352.39	27533.1	28256.4	-77.0082	77.3742	-0.316226	0.000889488	1.82904	1.7366	1	13	0.132694	4.69606e-06	1.76171e-05	-0.000298891	7.95614e-06	3.44843e-05	3.53902e-05	77.0082	1.92199e-07
2.81836	7054.42	30422	31229.2	-76.9447	78.6696	-0.316215	0.000887192	1.85625	1.76153	1	13	0.132692	4.24898e-06	1.80382e-05	-0.000218689	7.23336e-06	3.11937e-05	3.20213e-05	76.9447	4.21088e-07
2.51367	7736.29	33641.2	34519.3	-77.0492	80.5597	-0.316217	0.000888749	1.88209	1.78755	1	14	0.132711	3.84456e-06	1.84884e-05	0.000102121	6.49246e-06	2.82324e-05	2.89693e-05	77.0492	4.50233e-07
2.23982	8614.97	37088.8	38076.2	-76.9233	82.1744	-0.316216	0.000878967	1.91586	1.81778	1	14	0.132705	3.48524e-06	1.87576e-05	0.000102121	5.94219e-06	2.55821e-05	2.62631e-05	76.9233	2.69215e-07
1.99706	9609.75	40969.6	42081.5	-76.7994	83.9787	-0.31621	0.000885498	1.94521	1.84377	1	14	0.132702	3.15346e-06	1.93124e-05	-5.82835e-05	5.42662e-06	2.31355e-05	2.37634e-05	76.7994	5.54761e-07
1.77961	10623.7	45275.5	46505.2	-76.7947	85.997	-0.316209	0.000887361	1.97529	1.87221	1	14	0.132699	2.85342e-06	1.97556e-05	-0.000138486	4.91217e-06	2.09344e-05	2.1503e-05	76.7947	4.43192e-07
1.58469	11839.9	50026.6	51408.7	-76.6847	88.256	-0.316212	0.000881118	2.00759	1.9011	1	14	0.132696	2.58121e-06	2.02873e-05	0.000342729	4.47999e-06	1.89291e-05	1.9452e-05	76.6847	5.31692e-07
1.41224	13125.6	55129.5	56670.5	-76.608	90.7852	-0.316212	0.000887303	2.04422	1.93456	1	14	0.132698	2.34156e-06	2.09924e-05	0.000182324	4.08699e-06	1.7166e-05	1.76459e-05	76.608	7.05152e-07
1.25967	14583	60731	62457.4	-76.4975	93.614	-0.316215	0.000896441	2.08042	1.967	1	14	0.132696	2.12458e-06	2.15665e-05	2.1919e-05	3.73835e-06	1.55684e-05	1.60109e-05	76.4975	5.74085e-07
1.12249	16322.3	66977.3	68937.5	-76.304	96.7821	-0.316211	0.00088898	2.11695	1.99828	1	14	0.132696	1.92487e-06	2.24955e-05	-5.82835e-05	3.43456e-06	1.40934e-05	1.45059e-05	76.304	9.28961e-07
1.00006	18169.2	73849.5	76051.7	-76.178	100.331	-0.316212	0.000888849	2.15499	2.03199	1	14	0.132694	1.74479e-06	2.32236e-05	2.1919e-05	3.14136e-06	1.27682e-05	1.3149e-05	76.178	7.28111e-07