File: data/DE_65_12_60.mpt
EC-Lab ASCII FILE
Nb header lines : 60

Potentio Electrochemical Impedance Spectroscopy

Run on channel : 4 (SN 4192)
User :
CE vs. WE compliance from -10 V to 10 V
Electrode connection : standard
Ewe ctrl range : min = -10.00 V, max = 10.00 V
Acquisition started on : 02/20/2020 14:49:02
Technique started on : 02/20/2020 14:49:03
Saved on :
	File : DE_65_12_60.mpr
	Directory : P:\Chemistry\Data\VMP3\Kyler\DOE\DE_65\60C\
	Host : 10.0.4.64
Device : VMP3 (SN 1432)
Address : USB
EC-Lab for windows v11.33 (software)
Internet server v11.32 (firmware)
Command interpretor v11.33 (firmware)
Electrode material :
Initial state :
Electrolyte :
Comments :
Electrode surface area : 0.001 cm²
Characteristic mass : 0.001 g
Equivalent Weight : 0.000 g/eq.
Density : 0.000 g/cm3
Record Analogic IN 1
Cycle Definition : Charge/Discharge alternance
Mode                Single sine
E (V)               0.0000
vs.                 Eoc
tE (h:m:s)          0:00:0.0000
record              0
dI                  1.000
unit dI             mA
dt (s)              0.000
fi                  1.000
unit fi             MHz
ff                  1.000
unit ff             Hz
Nd                  20
Points              per decade
spacing             Logarithmic
Va (mV)             128.0
pw                  0.50
Na                  3
corr                0
E range min (V)     -10.000
E range max (V)     10.000
I Range             Auto
Bandwidth           5
nc cycles           0
goto Ns'            0
nr cycles           0
inc. cycle          1

freq/Hz	Re(Z)/Ohm	-Im(Z)/Ohm	|Z|/Ohm	Phase(Z)/deg	time/s	<Ewe>/V	<I>/mA	Cs/µF	Cp/µF	cycle number	I Range	|Ewe|/V	|I|/A	(Q-Qo)/mA.h	Analog IN 1/V	Re(Y)/Ohm-1	Im(Y)/Ohm-1	|Y|/Ohm-1	Phase(Y)/deg	dq/mA.h
1.00002e+06	78.4722	24.3956	82.1768	-17.2695	1.95149	-0.00198052	-0.0086212	0.00652379	0.000574944	1	11	0.00259188	3.15403e-05	-2.87313e-06	-0.000644957	0.0116203	0.00361254	0.0121689	17.2695	-2.87313e-06
891247	80.0624	21.432	82.8814	-14.9862	2.54648	-0.00170628	-0.00677679	0.0083322	0.000557149	1	11	0.00366208	4.41847e-05	-3.97303e-06	-0.000243989	0.0116551	0.00311996	0.0120654	14.9862	-1.0999e-06
794333	81.302	19.2955	83.5603	-13.3511	3.14149	-0.00148512	-0.00582164	0.0103839	0.0005537	1	11	0.00514037	6.15169e-05	-5.00431e-06	0.000237174	0.011644	0.00276348	0.0119674	13.3511	-1.03128e-06
707950	82.9834	17.7576	84.8621	-12.0785	3.73749	-0.00132351	-0.00491358	0.01266	0.000554337	1	11	0.00713428	8.40692e-05	-5.85132e-06	-0.000243989	0.011523	0.00246579	0.0117838	12.0785	-8.4701e-07
630957	84.9405	16.7672	86.5796	-11.1666	4.33249	-0.00118626	-0.00424654	0.0150439	0.000564221	1	11	0.00965133	0.000111474	-6.55131e-06	-0.000243989	0.0113314	0.00223681	0.0115501	11.1666	-6.99992e-07
562342	86.8634	16.0193	88.3282	-10.449	4.92748	-0.0010888	-0.00333532	0.0176676	0.000581116	1	11	0.0127084	0.000143877	-7.10981e-06	-0.000324182	0.0111337	0.00205326	0.0113214	10.449	-5.58505e-07
501206	87.8023	15.2404	89.1152	-9.84711	5.52449	-0.0009863	-0.00302897	0.0208356	0.000609394	1	11	0.0161536	0.000181266	-7.42562e-06	-8.36012e-05	0.0110561	0.00191909	0.0112214	9.84711	-3.1581e-07
446686	88.8318	14.6745	90.0357	-9.38025	6.11947	-0.00090196	-0.00261058	0.0242803	0.00064499	1	11	0.0203058	0.00022553	-7.51372e-06	-0.00104593	0.0109582	0.00181024	0.0111067	9.38025	-8.8099e-08
398103	90.0529	14.1903	91.1641	-8.9549	6.71448	-0.00084633	-0.00241106	0.0281729	0.000682604	1	11	0.0250883	0.000275199	-7.72905e-06	0.000317367	0.0108355	0.00170744	0.0109692	8.9549	-2.15329e-07
354810	90.7903	13.722	91.8214	-8.59462	7.30948	-0.000826942	-0.00213114	0.0326894	0.000730054	1	11	0.0305478	0.000332688	-7.91663e-06	-0.000564764	0.0107684	0.00162754	0.0108907	8.59462	-1.87576e-07
316230	91.6265	13.3328	92.5914	-8.27913	7.90448	-0.000810927	-0.00219256	0.0377482	0.000782701	1	11	0.0368051	0.0003975	-7.7955e-06	0.000397561	0.0106876	0.00155517	0.0108001	8.27913	1.21128e-07
281835	92.4637	13.0071	93.374	-8.00742	8.49949	-0.000800282	-0.00224281	0.0434155	0.000842471	1	11	0.0439992	0.000471215	-7.92897e-06	-0.00048457	0.0106052	0.00149186	0.0107096	8.00742	-1.33467e-07
251188	93.1595	12.7224	94.0242	-7.77651	9.09549	-0.000835591	-0.00218288	0.0498028	0.000911823	1	11	0.0521067	0.000554184	-7.42398e-06	0.000237174	0.0105378	0.00143909	0.0106356	7.77651	5.04985e-07
223872	93.7509	12.5127	94.5823	-7.60218	9.69148	-0.000799406	-0.00199024	0.056816	0.000994378	1	11	0.0611558	0.000646588	-8.29687e-06	-0.000324182	0.0104799	0.00139872	0.0105728	7.60218	-8.72892e-07
199544	94.3193	12.3592	95.1256	-7.46528	10.2885	-0.000812175	-0.00228877	0.0645344	0.00108938	1	11	0.0711344	0.000747795	-8.13867e-06	-0.00104593	0.0104233	0.00136583	0.0105124	7.46528	1.58204e-07
177832	94.9708	12.2952	95.7634	-7.37665	10.8835	-0.000858353	-0.00245664	0.0727906	0.00119991	1	11	0.0821253	0.000857585	-8.36458e-06	-0.00112612	0.010356	0.00134071	0.0104424	7.37665	-2.25905e-07
158486	95.6065	12.2953	96.3938	-7.32819	11.4795	-0.000831489	-0.00233064	0.0816753	0.00132883	1	11	0.0939689	0.000974843	-7.77147e-06	-0.000163795	0.0102894	0.00132324	0.0103741	7.32819	5.93102e-07
141256	96.2372	12.361	97.0278	-7.31918	12.0745	-0.000823789	-0.00229639	0.0911504	0.00147936	1	11	0.106698	0.00109966	-7.73582e-06	-0.000243989	0.0102223	0.00131299	0.0103063	7.31918	3.56561e-08
125909	96.9219	12.4923	97.7236	-7.34437	12.5345	-0.000841071	-0.00237996	0.101186	0.0016535	1	11	0.120467	0.00123273	-9.1493e-06	-0.00048457	0.010149	0.0013081	0.0102329	7.34437	-1.41348e-06
112205	97.5832	12.7001	98.4061	-7.41515	12.9945	-0.000797557	-0.00256402	0.111687	0.00186025	1	11	0.135418	0.00137611	-8.47231e-06	-0.000644957	0.010077	0.00131148	0.010162	7.41515	6.76982e-07
100004	98.3666	12.9234	99.2119	-7.48464	13.5905	-0.000817114	-0.00218974	0.123148	0.00208955	1	11	0.130316	0.00131351	-7.36482e-06	-0.000644957	0.00999356	0.00131295	0.0100794	7.48464	1.1075e-06
89129.3	99.1605	13.1996	100.035	-7.58225	14.1855	-0.000787491	-0.00220258	0.135282	0.00235534	1	11	0.129793	0.00129747	-4.81401e-06	-0.000324182	0.00990908	0.00131903	0.00999648	7.58225	2.55081e-06
79433.3	100.012	13.5224	100.922	-7.70015	14.7805	-0.000780779	-0.0021514	0.148171	0.00266012	1	11	0.129778	0.00128593	-6.63027e-06	-0.000243989	0.00981932	0.00132765	0.00990867	7.70015	-1.81626e-06
70795	100.93	13.872	101.878	-7.82581	15.3765	-0.000777741	-0.00215252	0.162062	0.00300463	1	11	0.129629	0.00127239	-8.31589e-06	-0.000965732	0.00972421	0.00133652	0.00981563	7.82581	-1.68562e-06
63093.8	101.912	14.2332	102.901	-7.9506	15.9715	-0.000767934	-0.00203583	0.177228	0.00339075	1	11	0.129579	0.00125926	-9.72261e-06	-3.40745e-06	0.00962466	0.0013442	0.00971808	7.9506	-1.40672e-06
56237	102.97	14.6073	104.001	-8.07406	16.5675	-0.000770116	-0.00203788	0.193744	0.00382199	1	11	0.129604	0.00124618	-7.25506e-06	7.67863e-05	0.00951995	0.00135049	0.00961526	8.07406	2.46755e-06
50122.5	104.073	14.9547	105.142	-8.1771	17.1625	-0.000762547	-0.0020429	0.212329	0.00429547	1	11	0.12938	0.00123053	-8.40365e-06	-0.000324182	0.00941422	0.00135277	0.00951092	8.1771	-1.14859e-06
44666.7	105.229	15.278	106.333	-8.26094	17.6215	-0.000735868	-0.00185045	0.233221	0.00481472	1	11	0.140737	0.00132356	-9.45602e-06	-0.000805345	0.00930687	0.00135125	0.00940445	8.26094	-1.05237e-06
39814.1	106.475	15.5852	107.61	-8.32745	18.2185	-0.000739877	-0.00195654	0.256491	0.0053801	1	11	0.130449	0.00121224	-9.18833e-06	-3.40745e-06	0.00919484	0.00134588	0.00929281	8.32745	2.67692e-07
35481	107.753	15.8251	108.909	-8.35502	18.6785	-0.000730555	-0.00199134	0.28345	0.00598475	1	11	0.139874	0.00128432	-1.01038e-05	-0.000404376	0.00908454	0.0013342	0.009182	8.35502	-9.15477e-07
31621.1	109.121	16.0311	110.292	-8.3576	19.2735	-0.000737938	-0.00196064	0.313964	0.00663308	1	11	0.130135	0.00117991	-1.31917e-05	-0.000644957	0.00897054	0.00131787	0.00906683	8.3576	-3.08784e-06
28188.1	110.422	16.1535	111.597	-8.32271	19.7335	-0.000727013	-0.00190071	0.349532	0.00732344	1	11	0.137319	0.00123049	-1.2572e-05	-0.00048457	0.00886643	0.00129706	0.0089608	8.32271	6.19659e-07
25116.9	111.825	16.2282	112.996	-8.25722	20.3285	-0.000730481	-0.00182756	0.390466	0.00805373	1	11	0.129751	0.00114828	-1.37436e-05	-0.00128651	0.00875812	0.00127099	0.00884986	8.25722	-1.17159e-06
22389	113.128	16.214	114.284	-8.15634	20.7875	-0.000716051	-0.00188936	0.438425	0.00882482	1	11	0.134878	0.00118021	-1.5117e-05	-0.00048457	0.00866164	0.00124143	0.00875016	8.15634	-1.37337e-06
19948.8	114.429	16.1665	115.566	-8.04152	21.2465	-0.000721886	-0.00189103	0.493499	0.00965748	1	11	0.139335	0.00120568	-1.64182e-05	-0.000163795	0.00856801	0.00121049	0.0086531	8.04152	-1.30125e-06
17786.9	115.753	16.0829	116.865	-7.91012	21.8415	-0.000722539	-0.00179649	0.556358	0.0105369	1	11	0.129493	0.00110806	-1.54376e-05	-0.000404376	0.00847545	0.00117759	0.00855686	7.91012	9.80614e-07
15847.7	116.998	15.9545	118.081	-7.76524	22.3015	-0.000705481	-0.00176354	0.629466	0.0114915	1	11	0.132305	0.00112046	-1.57786e-05	-0.000805345	0.0083911	0.00114425	0.00846876	7.76524	-3.40999e-07
14121.9	118.171	15.7881	119.221	-7.60986	22.7615	-0.00071456	-0.00170082	0.713834	0.0125184	1	11	0.134572	0.00112876	-1.4996e-05	-0.000324182	0.00831389	0.00111077	0.00838776	7.60986	7.82584e-07
12590.9	119.313	15.6293	120.333	-7.46287	23.2215	-0.000714709	-0.00171981	0.808768	0.0136437	1	11	0.13641	0.0011336	-1.59853e-05	-0.000564764	0.0082399	0.00107937	0.00831029	7.46287	-9.89333e-07
11217.7	120.404	15.462	121.393	-7.31774	23.6805	-0.000712118	-0.00181249	0.917592	0.0148866	1	11	0.137883	0.00113584	-1.68339e-05	0.000397561	0.00817062	0.00104925	0.00823772	7.31774	-8.48563e-07
10002.2	121.439	15.3206	122.402	-7.19039	24.1405	-0.000705425	-0.00179034	1.0386	0.0162714	1	11	0.139046	0.00113598	-1.81127e-05	-0.00176767	0.00810556	0.00102259	0.00816981	7.19039	-1.27879e-06
8914.93	122.433	15.2075	123.374	-7.08047	24.6229	-0.000664112	-0.00137195	1.17394	0.0178366	1	11	0.139971	0.00113453	-1.81e-05	-0.000324182	0.00804363	0.000999103	0.00810544	7.08047	1.26894e-08
7944	123.376	15.1318	124.3	-6.99231	25.149	-0.00063091	-0.00122827	1.32401	0.0196214	1	11	0.140688	0.00113184	-1.79223e-05	-0.000243989	0.00798521	0.000979373	0.00804504	6.99231	1.77653e-07
7082.23	124.324	15.1121	125.239	-6.93057	25.8949	-0.000626268	-0.000952823	1.48705	0.021652	1	11	0.129334	0.0010327	-1.99403e-05	-0.000644957	0.0079264	0.00096349	0.00798474	6.93057	-2.01791e-06
6307.73	125.211	15.1231	126.121	-6.88685	26.5295	-0.00062116	-0.000981487	1.66843	0.0239889	1	11	0.129731	0.00102862	-1.91769e-05	-0.000404376	0.00787168	0.000950745	0.00792889	6.88685	7.6339e-07
5621.06	126.091	15.2082	127.005	-6.87735	27.2303	-0.000616108	-0.000977949	1.86177	0.0266953	1	11	0.130032	0.00102383	-1.96813e-05	-3.40745e-06	0.00781704	0.00094283	0.00787369	6.87735	-5.04433e-07
5011.6	126.955	15.3393	127.878	-6.88934	27.9907	-0.000621738	-0.00110711	2.07033	0.029789	1	11	0.13026	0.00101863	-1.95986e-05	-0.000163795	0.00776348	0.000938019	0.00781995	6.88934	8.27243e-08
4466.43	127.838	15.5427	128.78	-6.93207	28.7507	-0.000599162	-0.000939423	2.29262	0.0333959	1	11	0.130436	0.00101286	-1.93976e-05	7.67863e-05	0.00770844	0.000937202	0.00776521	6.93207	2.00954e-07
3981.27	128.715	15.8199	129.683	-7.00688	29.5107	-0.000623826	-0.00105295	2.52694	0.037604	1	11	0.130558	0.00100675	-1.88068e-05	-0.000725151	0.00765352	0.000940667	0.00771111	7.00688	5.90813e-07
3546.6	129.629	16.1497	130.631	-7.10156	30.2709	-0.000624814	-0.00114024	2.77872	0.0424699	1	11	0.130656	0.00100019	-1.83543e-05	-0.000163795	0.00759643	0.000946396	0.00765516	7.10156	4.52533e-07
3161.01	130.564	16.551	131.609	-7.2246	31.0307	-0.000624311	-0.00113466	3.04207	0.0481116	1	11	0.130719	0.000993242	-1.78401e-05	-0.000324182	0.00753796	0.000955554	0.00759828	7.2246	5.14163e-07
2817.3	131.545	17.0174	132.642	-7.37113	31.791	-0.00061553	-0.0010939	3.31967	0.0546413	1	11	0.13077	0.00098589	-1.73627e-05	0.00015698	0.00747681	0.000967237	0.00753911	7.37113	4.77453e-07
2510.8	132.567	17.5315	133.721	-7.53341	32.5507	-0.000595955	-0.000861256	3.61568	0.0621475	1	11	0.130792	0.000978096	-1.79102e-05	-0.000324182	0.00741369	0.000980429	0.00747824	7.53341	-5.47536e-07
2237.85	133.656	18.1368	134.881	-7.72769	33.3109	-0.000619463	-0.00101983	3.92128	0.0709001	1	11	0.130829	0.000969959	-1.90474e-05	-0.000805345	0.0073466	0.000996914	0.00741393	7.72769	-1.13721e-06
1995.64	134.784	18.7577	136.083	-7.92291	34.0707	-0.000594836	-0.000889729	4.25166	0.0807817	1	11	0.130819	0.000961321	-1.84428e-05	-0.000805345	0.00727834	0.00101292	0.00734848	7.92291	6.04561e-07
1778.29	136.005	19.4512	137.389	-8.13917	34.831	-0.000620004	-0.00111065	4.60118	0.0922277	1	11	0.130825	0.000952225	-1.88944e-05	-0.000404376	0.0072053	0.00103049	0.00727861	8.13917	-4.5154e-07
1585.51	137.288	20.197	138.766	-8.36901	35.5907	-0.000615362	-0.00108794	4.97009	0.105287	1	11	0.130818	0.000942725	-1.97759e-05	0.000237174	0.00712966	0.00104888	0.0072064	8.36901	-8.8157e-07
1411.84	138.649	20.9669	140.225	-8.59927	36.3522	-0.000613703	-0.000977579	5.37653	0.120203	1	11	0.130807	0.000932837	-2.03171e-05	-0.000564764	0.00705121	0.0010663	0.00713138	8.59927	-5.41136e-07
1258.79	140.102	21.7761	141.785	-8.83479	37.112	-0.000612808	-0.00108031	5.80612	0.136958	1	11	0.130798	0.000922512	-2.13362e-05	-0.000243989	0.00696927	0.00108323	0.00705295	8.83479	-1.01911e-06
1121.79	141.67	22.6052	143.462	-9.06581	37.8704	-0.000617413	-0.00121767	6.27622	0.155826	1	11	0.130787	0.000911648	-2.10727e-05	-0.000163795	0.00688339	0.00109833	0.00697046	9.06581	2.63453e-07
1000.32	143.382	23.4456	145.286	-9.2867	38.6297	-0.000610012	-0.00111642	6.7861	0.176722	1	11	0.130775	0.000900116	-2.17781e-05	-0.000564764	0.00679274	0.00111074	0.00688295	9.2867	-7.05375e-07
891.427	145.176	24.2922	147.195	-9.49925	39.3884	-0.000616108	-0.00113094	7.34966	0.200179	1	11	0.130754	0.00088831	-2.24338e-05	-0.000404376	0.00670057	0.0011212	0.00679373	9.49925	-6.55715e-07
794.238	147.102	25.1267	149.233	-9.69321	40.1479	-0.000624068	-0.00127034	7.97507	0.226088	1	11	0.130741	0.000876088	-2.21582e-05	-0.000644957	0.00660528	0.00112826	0.00670095	9.69321	2.75675e-07
707.509	149.152	25.9105	151.386	-9.85498	40.9105	-0.000612901	-0.00122865	8.68185	0.254326	1	11	0.130728	0.000863537	-2.31685e-05	-0.000163795	0.00650815	0.00113059	0.00660563	9.85498	-1.01032e-06
631.01	151.284	26.6736	153.618	-9.99929	41.6684	-0.000626492	-0.00137884	9.4559	0.28509	1	11	0.130713	0.0008509	-2.40537e-05	-3.40745e-06	0.00641078	0.00113031	0.00650967	9.99929	-8.85187e-07
562.339	153.528	27.3653	155.947	-10.1064	42.4249	-0.000621831	-0.00131631	10.3424	0.318467	1	11	0.130696	0.000838076	-2.48102e-05	-0.000404376	0.00631292	0.00112523	0.00641241	10.1064	-7.56501e-07
501.444	155.851	27.9896	158.345	-10.1813	43.1822	-0.000620172	-0.00135819	11.3397	0.354312	1	11	0.130682	0.000825298	-2.51428e-05	-0.000965732	0.00621589	0.00111632	0.00631533	10.1813	-3.32591e-07
446.859	158.284	28.5031	160.83	-10.2081	43.9389	-0.000620004	-0.00146744	12.4956	0.392469	1	11	0.130673	0.000812491	-2.55837e-05	-0.000243989	0.00611931	0.00110193	0.00621773	10.2081	-4.40898e-07
398.089	160.833	28.9527	163.418	-10.2049	44.7017	-0.00063009	-0.00135651	13.8086	0.433438	1	11	0.130658	0.000799528	-2.54711e-05	-0.00048457	0.00602246	0.00108414	0.00611926	10.2049	1.12558e-07
354.66	163.418	29.27	166.019	-10.1546	45.4619	-0.000631432	-0.00137177	15.3315	0.476557	1	11	0.130642	0.000786909	-2.61845e-05	-0.000885539	0.00592905	0.00106196	0.0060234	10.1546	-7.13434e-07
316.316	166.061	29.4572	168.654	-10.0589	46.2189	-0.000624348	-0.00130124	17.0808	0.521072	1	11	0.13064	0.000774603	-2.57848e-05	-0.000243989	0.00583816	0.00103562	0.0059293	10.0589	3.9978e-07
281.894	168.734	29.5129	171.296	-9.92111	46.9744	-0.0006272	-0.00127816	19.1303	0.567875	1	11	0.130631	0.000762603	-2.67385e-05	-0.000965732	0.00575056	0.00100582	0.00583785	9.92111	-9.5379e-07
251.044	171.451	29.432	173.959	-9.74071	47.7299	-0.000621962	-0.00119459	21.5402	0.616592	1	11	0.13062	0.000750869	-2.72044e-05	-0.000324182	0.00566562	0.000972586	0.0057485	9.74071	-4.65867e-07
223.925	174.077	29.206	176.51	-9.52416	48.4927	-0.000620452	-0.00112052	24.3358	0.66627	1	11	0.130609	0.000739955	-2.66846e-05	-8.36012e-05	0.00558731	0.000937417	0.0056654	9.52416	5.19817e-07
199.553	176.761	28.8282	179.096	-9.26289	49.2542	-0.000623192	-0.00104961	27.6659	0.716812	1	11	0.130608	0.00072926	-2.68266e-05	7.67863e-05	0.00551077	0.000898759	0.00558358	9.26289	-1.4205e-07
177.781	179.384	28.2937	181.602	-8.96324	50.0222	-0.000613498	-0.000990982	31.6406	0.76804	1	11	0.130602	0.000719166	-2.75013e-05	-8.36012e-05	0.00543931	0.000857926	0.00550656	8.96324	-6.74654e-07
158.428	181.92	27.6476	184.009	-8.64151	50.7887	-0.000617115	-0.00104142	36.3353	0.820291	1	11	0.130587	0.000709677	-2.73531e-05	0.00015698	0.00537283	0.000816547	0.00543452	8.64151	1.48216e-07
141.311	184.372	26.8513	186.317	-8.28611	51.5419	-0.000621328	-0.00104924	41.9448	0.871174	1	11	0.130596	0.000700938	-2.82105e-05	-0.000163795	0.00531118	0.000773502	0.0053672	8.28611	-8.57434e-07
125.846	186.706	25.9659	188.503	-7.91755	52.2974	-0.000623229	-0.00103156	48.7055	0.924161	1	11	0.130589	0.000692768	-2.78202e-05	0.000237174	0.00525437	0.000730745	0.00530495	7.91755	3.90292e-07
112.19	188.887	24.9604	190.529	-7.52772	53.0429	-0.000623863	-0.000990796	56.8347	0.975428	1	11	0.130581	0.000685358	-2.72215e-05	-0.000324182	0.0052033	0.000687589	0.00524854	7.52772	5.98774e-07
100.032	190.96	23.8694	192.446	-7.12484	53.8027	-0.000616555	-0.000920446	66.656	1.02542	1	11	0.130576	0.000678506	-2.74107e-05	-0.000404376	0.00515613	0.0006445	0.00519625	7.12484	-1.89259e-07
89.116	192.858	22.712	194.191	-6.71652	54.5697	-0.000625951	-0.00104105	78.6337	1.07563	1	11	0.130582	0.00067244	-2.819e-05	0.00015698	0.00511423	0.000602279	0.00514957	6.71652	-7.79247e-07
79.4155	194.638	21.5214	195.825	-6.30963	55.3342	-0.000628412	-0.000988936	93.1203	1.12473	1	11	0.130581	0.000666825	-2.7678e-05	-0.000243989	0.00507568	0.000561223	0.00510661	6.30963	5.1195e-07
70.8387	196.223	20.3314	197.274	-5.91552	56.0854	-0.000630668	-0.000976281	110.505	1.17376	1	11	0.130572	0.000661883	-2.82691e-05	-0.000725151	0.00504211	0.000522432	0.0050691	5.91552	-5.91055e-07
63.0823	197.721	19.0983	198.642	-5.51719	56.8658	-0.000625933	-0.00104701	132.105	1.22114	1	11	0.130575	0.00065734	-2.85081e-05	-0.000404376	0.00501087	0.00048401	0.00503419	5.51719	-2.39081e-07
56.2418	199.042	17.8816	199.843	-5.13357	57.6103	-0.000630239	-0.000986517	158.254	1.26703	1	11	0.130576	0.00065339	-2.91016e-05	-0.000564764	0.00498385	0.00044774	0.00500392	5.13357	-5.93444e-07
50.1444	200.194	16.6958	200.889	-4.76732	58.3672	-0.000628188	-0.000946316	190.104	1.31308	1	11	0.130568	0.000649953	-2.96689e-05	-0.000644957	0.00496065	0.000413709	0.00497788	4.76732	-5.67335e-07
44.6712	201.242	15.531	201.84	-4.4131	59.1312	-0.000624217	-0.000936268	229.4	1.35824	1	11	0.130571	0.000646901	-2.99252e-05	-0.000564764	0.00493972	0.000381227	0.00495441	4.4131	-2.56289e-07
39.8089	202.169	14.4095	202.682	-4.07685	59.8937	-0.000622279	-0.000930499	277.453	1.40236	1	11	0.130567	0.000644198	-2.94164e-05	-0.00048457	0.00492136	0.000350769	0.00493384	4.07685	5.08793e-07
35.4653	202.978	13.3452	203.417	-3.7616	60.6441	-0.000622111	-0.000835394	336.273	1.44733	1	11	0.130576	0.000641912	-3.05154e-05	-0.000404376	0.00490543	0.000322516	0.00491602	3.7616	-1.099e-06
31.6296	203.727	12.3125	204.099	-3.45854	61.3685	-0.000620824	-0.000838186	408.677	1.48728	1	11	0.130572	0.00063975	-3.14301e-05	0.000317367	0.00489066	0.000295573	0.00489958	3.45854	-9.14689e-07
28.1701	204.373	11.3212	204.686	-3.17066	62.1737	-0.00061622	-0.000870011	499.043	1.52668	1	11	0.130572	0.000637913	-3.13048e-05	-0.000564764	0.00487805	0.000270219	0.00488552	3.17066	1.2532e-07
25.1044	204.905	10.4146	205.169	-2.90965	62.9299	-0.000621812	-0.000853447	608.731	1.56852	1	11	0.130565	0.000636377	-3.10884e-05	-8.36012e-05	0.00486774	0.000247411	0.00487403	2.90965	2.16381e-07
22.3854	205.41	9.56817	205.632	-2.66696	63.6164	-0.000623248	-0.000885459	743.065	1.6088	1	11	0.13057	0.000634966	-3.12884e-05	-0.000324182	0.00485778	0.00022628	0.00486304	2.66696	-2.00022e-07
19.9553	205.828	8.76746	206.014	-2.4391	64.3782	-0.000622838	-0.000956184	909.678	1.64756	1	11	0.130571	0.000633794	-3.03873e-05	-0.000644957	0.00484963	0.000206575	0.00485403	2.4391	9.01166e-07
17.7961	206.196	8.03621	206.352	-2.2319	65.2225	-0.000655584	-0.00117692	1112.87	1.68782	1	11	0.130574	0.00063277	-3.07142e-05	-0.000644957	0.0048424	0.000188726	0.00484608	2.2319	-3.26899e-07
15.8576	206.553	7.36968	206.685	-2.04341	65.9449	-0.000622241	-0.000893649	1361.87	1.73147	1	11	0.13057	0.000631738	-3.35848e-05	-0.00048457	0.00483521	0.000172517	0.00483829	2.04341	-2.87065e-06
14.119	206.846	6.72576	206.955	-1.86236	66.7472	-0.000616406	-0.000921939	1676.01	1.77014	1	11	0.130573	0.000630926	-3.29653e-05	-0.000324182	0.00482941	0.000157032	0.00483197	1.86236	6.19467e-07
12.6008	207.072	6.14094	207.163	-1.69867	67.6379	-0.00063751	-0.00103035	2056.77	1.80731	1	11	0.130576	0.000630305	-3.10774e-05	-0.00048457	0.00482499	0.00014309	0.00482711	1.69867	1.88796e-06
11.2249	207.296	5.58425	207.371	-1.54309	68.3219	-0.000625429	-0.000889926	2539.07	1.84122	1	11	0.130574	0.000629661	-3.5412e-05	-0.000163795	0.00482052	0.000129857	0.00482226	1.54309	-4.33464e-06
10.0032	207.482	5.09445	207.545	-1.40654	69.0827	-0.000629307	-0.00100811	3123.08	1.88172	1	11	0.130556	0.00062905	-3.32809e-05	-0.00048457	0.00481679	0.00011827	0.00481824	1.40654	2.13114e-06
8.91838	207.617	4.64245	207.669	-1.28096	69.927	-0.00065893	-0.00121526	3844.03	1.92106	1	11	0.130576	0.000628772	-3.37864e-05	-0.000404376	0.00481416	0.000107648	0.00481536	1.28096	-5.05528e-07
7.93953	207.758	4.21331	207.8	-1.1618	70.8657	-0.00062775	-0.00104496	4757.75	1.95594	1	11	0.130576	0.000628372	-3.33433e-05	-0.000644957	0.00481132	9.75733e-05	0.00481231	1.1618	4.4312e-07
7.07654	207.889	3.8293	207.925	-1.05526	71.424	-0.000629717	-0.00101965	5873.26	1.99208	1	11	0.130569	0.000627963	-3.25736e-05	0.00015698	0.00480862	8.85743e-05	0.00480944	1.05526	7.69673e-07
6.31058	207.987	3.4849	208.016	-0.95992	72.0442	-0.00064657	-0.00103528	7237.04	2.03116	1	11	0.130559	0.000627636	-3.07114e-05	-0.000965732	0.00480664	8.05368e-05	0.00480731	0.95992	1.86219e-06
5.6205	208.101	3.15584	208.125	-0.86882	72.7307	-0.000625	-0.000974609	8972.83	2.06306	1	11	0.130565	0.000627337	-3.05652e-05	0.000477755	0.00480425	7.28561e-05	0.0048048	0.86882	1.46213e-07
5.01444	208.176	2.87994	208.196	-0.792589	73.4882	-0.000608669	-0.000953206	11020.8	2.10881	1	11	0.130577	0.000627183	-3.64438e-05	7.67863e-05	0.00480271	6.64415e-05	0.00480317	0.792589	-5.87856e-06
4.46939	208.225	2.60884	208.242	-0.717816	74.3295	-0.000651231	-0.00132721	13649.7	2.14231	1	11	0.130573	0.000627028	-4.31922e-05	-0.000163795	0.00480173	6.01605e-05	0.00480211	0.717816	-6.74846e-06
3.97785	208.311	2.36441	208.324	-0.650301	75.2662	-0.000633641	-0.00106478	16921.9	2.17979	1	11	0.130582	0.000626821	-3.57992e-05	-0.000163795	0.0047999	5.44807e-05	0.00480021	0.650301	7.39305e-06
3.55114	208.355	2.14946	208.366	-0.591062	76.3074	-0.000620442	-0.00105436	20850.8	2.21885	1	11	0.130574	0.000626655	-2.91464e-05	-0.000324182	0.00479899	4.9508e-05	0.00479924	0.591062	6.65276e-06
3.1604	208.376	1.95232	208.385	-0.536803	77.4692	-0.000614533	-0.000998433	25794.5	2.26411	1	11	0.130578	0.00062662	-4.4464e-05	-0.000805345	0.0047986	4.49593e-05	0.00479881	0.536803	-1.53176e-05
2.81836	208.401	1.78282	208.409	-0.49014	78.7646	-0.000629602	-0.00106809	31674.9	2.31792	1	11	0.13058	0.000626559	-3.87367e-05	-8.36012e-05	0.00479808	4.10464e-05	0.00479826	0.49014	5.72736e-06
2.51367	208.405	1.60067	208.412	-0.440055	80.2087	-0.000620871	-0.00102969	39555.8	2.33329	1	11	0.130578	0.000626538	-2.86344e-05	-0.000324182	0.00479806	3.68517e-05	0.0047982	0.440055	1.01022e-05
2.23982	208.421	1.45606	208.426	-0.40027	81.8233	-0.000632835	-0.00115686	48801	2.38167	1	11	0.130583	0.00062652	-5.17652e-05	-0.000644957	0.00479775	3.35178e-05	0.00479787	0.40027	-2.31308e-05
1.99706	208.426	1.32418	208.431	-0.364007	83.6267	-0.000615758	-0.0010123	60184.3	2.42913	1	11	0.130581	0.000626496	-2.86365e-05	-0.000564764	0.00479766	3.04805e-05	0.00479776	0.364007	2.31287e-05
1.77961	208.399	1.21287	208.402	-0.333453	85.6448	-0.000623655	-0.00109661	73736.4	2.49748	1	11	0.13058	0.000626577	-4.31119e-05	-0.00048457	0.00479833	2.79259e-05	0.00479841	0.333453	-1.44754e-05
1.58469	208.367	1.09888	208.37	-0.302162	87.904	-0.000612794	-0.000976678	91395.6	2.54189	1	11	0.130582	0.000626684	-4.62188e-05	-0.000644957	0.00479908	2.53093e-05	0.00479915	0.302162	-3.1069e-06
1.41224	208.316	0.983647	208.318	-0.270543	90.4332	-0.000613206	-0.00102633	114571	2.55444	1	11	0.130582	0.000626839	-2.64796e-05	-0.000324182	0.00480029	2.26665e-05	0.00480034	0.270543	1.97392e-05
1.25967	208.27	0.892092	208.272	-0.245416	93.261	-0.000615812	-0.00107451	141629	2.59841	1	11	0.130584	0.000626986	-6.34492e-05	-0.000564764	0.00480136	2.05658e-05	0.00480141	0.245416	-3.69697e-05
1.12249	208.225	0.807772	208.226	-0.222268	96.4291	-0.000615192	-0.00101016	175530	2.64154	1	11	0.130584	0.000627125	-1.65696e-05	-3.40745e-06	0.00480243	1.86302e-05	0.00480247	0.222268	4.68797e-05
1.00006	208.172	0.734351	208.173	-0.202117	99.9782	-0.000615744	-0.00103365	216715	2.69678	1	11	0.130583	0.000627278	-7.19121e-05	-0.000805345	0.00480366	1.69455e-05	0.00480369	0.202117	-5.53425e-05