File: data/DE_65_10_60.mpt
EC-Lab ASCII FILE
Nb header lines : 60

Potentio Electrochemical Impedance Spectroscopy

Run on channel : 2 (SN 20919)
User :
CE vs. WE compliance from -10 V to 10 V
Electrode connection : standard
Ewe ctrl range : min = -10.00 V, max = 10.00 V
Acquisition started on : 02/20/2020 14:48:44
Technique started on : 02/20/2020 14:48:45
Saved on :
	File : DE_65_10_60.mpr
	Directory : P:\Chemistry\Data\VMP3\Kyler\DOE\DE_65\60C\
	Host : 10.0.4.64
Device : VMP3 (SN 1432)
Address : USB
EC-Lab for windows v11.33 (software)
Internet server v11.32 (firmware)
Command interpretor v11.33 (firmware)
Electrode material :
Initial state :
Electrolyte :
Comments :
Electrode surface area : 0.001 cm²
Characteristic mass : 0.001 g
Equivalent Weight : 0.000 g/eq.
Density : 0.000 g/cm3
Record Analogic IN 1
Cycle Definition : Charge/Discharge alternance
Mode                Single sine
E (V)               0.0000
vs.                 Eoc
tE (h:m:s)          0:00:0.0000
record              0
dI                  1.000
unit dI             mA
dt (s)              0.000
fi                  1.000
unit fi             MHz
ff                  1.000
unit ff             Hz
Nd                  20
Points              per decade
spacing             Logarithmic
Va (mV)             128.0
pw                  0.50
Na                  3
corr                0
E range min (V)     -10.000
E range max (V)     10.000
I Range             Auto
Bandwidth           5
nc cycles           0
goto Ns'            0
nr cycles           0
inc. cycle          1

freq/Hz	Re(Z)/Ohm	-Im(Z)/Ohm	|Z|/Ohm	Phase(Z)/deg	time/s	<Ewe>/V	<I>/mA	Cs/µF	Cp/µF	cycle number	I Range	|Ewe|/V	|I|/A	(Q-Qo)/mA.h	Analog IN 1/V	Re(Y)/Ohm-1	Im(Y)/Ohm-1	|Y|/Ohm-1	Phase(Y)/deg	dq/mA.h
1.00002e+06	110.579	63.3793	127.455	-29.8194	1.95049	-0.00272424	-0.00067157	0.0025111	0.000620935	1	11	0.00214899	1.68608e-05	-1.37266e-07	-0.000296759	0.00680709	0.00390152	0.00784591	29.8194	-1.37266e-07
891247	115.473	61.1018	130.643	-27.8852	2.54647	-0.00228754	-0.000728253	0.00292259	0.000639301	1	11	0.00355736	2.72297e-05	-2.72773e-07	-0.000296759	0.00676568	0.00358	0.00765446	27.8852	-1.35507e-07
794333	121.402	59.26	135.093	-26.0185	3.14148	-0.00193916	-0.000754643	0.00338108	0.0006506	1	11	0.00559863	4.14428e-05	-3.61e-07	-0.000136398	0.00665211	0.00324711	0.00740231	26.0185	-8.82272e-08
707950	127.58	58.1733	140.217	-24.5117	3.73748	-0.0016448	-0.000719331	0.00386451	0.000665179	1	11	0.00839469	5.98692e-05	-3.17578e-07	0.000424868	0.00648904	0.00295883	0.00713179	24.5117	4.34223e-08
630957	133.434	57.2445	145.195	-23.2198	4.33349	-0.0013811	-0.000658001	0.00440643	0.000684939	1	11	0.0119909	8.25852e-05	-3.87522e-07	0.000104145	0.00632942	0.00271538	0.00688729	23.2198	-6.99444e-08
562342	138.987	56.2842	149.951	-22.046	4.92949	-0.00118063	-0.000648708	0.00502844	0.000708445	1	11	0.0164347	0.0001096	-6.7054e-07	-0.000216578	0.00618123	0.00250315	0.00666884	22.046	-2.83017e-07
501206	144.28	55.1938	154.477	-20.9341	5.52648	-0.0010366	-0.000732896	0.00575325	0.000734455	1	11	0.0217431	0.000140753	-4.75282e-07	2.39641e-05	0.00604615	0.00231292	0.00647345	20.9341	1.95258e-07
446686	149.317	54.0317	158.792	-19.8931	6.12248	-0.000901741	-0.00067937	0.00659432	0.0007635	1	11	0.0279	0.000175702	-1.96621e-07	-0.00037694	0.00592176	0.00214285	0.00629754	19.8931	2.78661e-07
398103	153.999	52.7339	162.778	-18.9027	6.71848	-0.000843259	-0.000714495	0.00758114	0.000795652	1	11	0.0349501	0.00021471	-2.31379e-07	0.000184326	0.00581203	0.00199021	0.00614334	18.9027	-3.47585e-08
354810	158.245	51.3562	166.37	-17.9801	7.31347	-0.000804706	-0.000614137	0.00873437	0.000832273	1	11	0.042887	0.00025778	1.27566e-07	2.39641e-05	0.00571715	0.00185542	0.00601069	17.9801	3.58945e-07
316230	162.177	50.0065	169.712	-17.1369	7.90849	-0.000842084	-0.000686987	0.0100645	0.000873814	1	11	0.0518623	0.00030559	1.06852e-07	-0.00037694	0.00563074	0.00173621	0.00589234	17.1369	-2.07142e-08
281835	165.831	48.5515	172.792	-16.3188	8.50347	-0.000838691	-0.000617849	0.0116312	0.000918293	1	11	0.0618891	0.000358171	4.06516e-07	0.000184326	0.00555415	0.00162613	0.00578731	16.3188	2.99664e-07
251188	169.251	47.1148	175.686	-15.5557	9.09849	-0.000852225	-0.000711702	0.0134482	0.000967171	1	11	0.0730643	0.000415879	2.58101e-07	-5.62167e-05	0.00548347	0.00152645	0.00569196	15.5557	-1.48415e-07
223872	172.382	45.741	178.347	-14.8608	9.69448	-0.000871427	-0.000815774	0.0155423	0.00102234	1	11	0.0853253	0.000478422	-9.02623e-07	0.000264507	0.00541949	0.00143805	0.00560704	14.8608	-1.16072e-06
199544	175.311	44.4486	180.858	-14.2271	10.2905	-0.000842102	-0.000665982	0.0179442	0.00108384	1	11	0.0987228	0.000545859	-1.19565e-06	0.000264507	0.00535962	0.00135889	0.00552921	14.2271	-2.93022e-07
177832	178.029	43.3003	183.219	-13.6701	10.8865	-0.000858078	-0.000733257	0.020669	0.00115441	1	11	0.113202	0.000617849	-2.23792e-06	-0.000537302	0.00530333	0.00128988	0.00545794	13.6701	-1.04228e-06
158486	180.604	42.2756	185.486	-13.1745	11.3465	-0.000829461	-0.000753136	0.0237541	0.00123395	1	11	0.128745	0.000694096	-2.26091e-06	0.000264507	0.00524934	0.00122876	0.00539124	13.1745	-2.2984e-08
141256	182.997	41.4243	187.627	-12.7548	11.9415	-0.000812254	-0.000762801	0.0271993	0.0013258	1	11	0.129188	0.000688538	-3.14446e-06	-0.000296759	0.0051982	0.0011767	0.00532972	12.7548	-8.83554e-07
125909	185.274	40.745	189.702	-12.4029	12.5385	-0.000785968	-0.000701844	0.0310233	0.00143118	1	11	0.129767	0.00068406	-3.93047e-06	2.39641e-05	0.00514841	0.00113222	0.00527144	12.4029	-7.86012e-07
112205	187.45	40.2505	191.723	-12.1189	13.1335	-0.000706812	-0.000470465	0.0352401	0.00155321	1	11	0.129634	0.000676151	-4.07362e-06	-0.00037694	0.00509962	0.00109502	0.00521586	12.1189	-1.43148e-07
100004	189.565	39.9495	193.729	-11.9006	13.7295	-0.000733937	-0.000609478	0.0398375	0.00169406	1	11	0.129718	0.000669588	-4.24903e-06	0.000264507	0.00505092	0.00106445	0.00516186	11.9006	-1.75412e-07
89129.3	191.628	39.8353	195.725	-11.7433	14.3255	-0.000737963	-0.00069218	0.0448262	0.00185685	1	11	0.129585	0.00066208	-3.27601e-06	-0.000537302	0.00500228	0.00103986	0.00510922	11.7433	9.73021e-07
79433.3	193.636	39.9298	197.711	-11.6516	14.9205	-0.000693072	-0.000598886	0.0501789	0.0020467	1	11	0.129545	0.000655228	-2.93637e-06	-0.000296759	0.00495367	0.0010215	0.0050579	11.6516	3.3964e-07
70795	195.626	40.2433	199.723	-11.6244	15.5165	-0.000702897	-0.000665977	0.055863	0.00226807	1	11	0.129401	0.000647903	-3.07793e-06	0.000104145	0.00490425	0.00100888	0.00500695	11.6244	-1.41559e-07
63093.8	197.616	40.7665	201.777	-11.6561	16.1115	-0.000693892	-0.000631225	0.0618771	0.00252576	1	11	0.129377	0.000641187	-3.51071e-06	-5.62167e-05	0.00485376	0.00100129	0.00495596	11.6561	-4.32778e-07
56237	199.655	41.5054	203.924	-11.7437	16.5715	-0.000704183	-0.000690507	0.0681857	0.00282467	1	11	0.14029	0.000687954	-4.20788e-06	0.000184326	0.00480115	0.000998089	0.0049038	11.7437	-6.97167e-07
50122.5	201.733	42.484	206.158	-11.8924	17.1675	-0.000689083	-0.000697014	0.0747416	0.00317403	1	11	0.130314	0.000632107	-4.55299e-06	2.39641e-05	0.00474653	0.000999595	0.00485064	11.8924	-3.45116e-07
44666.7	203.869	43.6778	208.496	-12.0925	17.6265	-0.000693519	-0.000703703	0.0815783	0.00358016	1	11	0.139403	0.000668615	-5.18367e-06	0.000264507	0.00468983	0.00100477	0.00479626	12.0925	-6.30681e-07
39814.1	206.098	45.0887	210.972	-12.3404	18.2225	-0.0006784	-0.000733629	0.0886575	0.00404949	1	11	0.13002	0.000616291	-5.11977e-06	-0.000136398	0.00463044	0.00101302	0.00473996	12.3404	6.39e-08
35481	208.437	46.7257	213.61	-12.6352	18.6815	-0.000661342	-0.000661145	0.0959993	0.00459342	1	11	0.1371	0.000641825	-5.41671e-06	-0.000136398	0.00456805	0.00102403	0.00468142	12.6352	-2.96939e-07
31621.1	210.909	48.5982	216.436	-12.9757	19.2765	-0.00066343	-0.00058142	0.103567	0.0052216	1	11	0.129522	0.000598432	-6.80076e-06	-0.000136398	0.00450233	0.00103744	0.00462031	12.9757	-1.38404e-06
28188.1	213.498	50.6743	219.43	-13.3522	19.7355	-0.000663057	-0.000641077	0.111421	0.00594226	1	11	0.134663	0.000613696	-6.71985e-06	-0.000296759	0.00443408	0.00105244	0.00455727	13.3522	8.09076e-08
25116.9	216.279	52.9717	222.672	-13.7621	20.1955	-0.000672789	-0.000687168	0.119622	0.00676966	1	11	0.139142	0.000624875	-6.54797e-06	0.000264507	0.00436199	0.00106835	0.00449091	13.7621	1.71877e-07
22389	219.219	55.4975	226.134	-14.2065	20.7915	-0.000668427	-0.000678619	0.128089	0.00771481	1	11	0.129456	0.000572472	-6.02553e-06	-0.000296759	0.00428691	0.00108528	0.00442215	14.2065	5.2244e-07
19948.8	222.378	58.233	229.876	-14.6742	21.2515	-0.000662554	-0.000704452	0.137004	0.00879193	1	11	0.132313	0.000575584	-6.56371e-06	-0.000296759	0.00420827	0.001102	0.00435016	14.6742	-5.38177e-07
17786.9	225.728	61.18	233.872	-15.1648	21.7115	-0.000663505	-0.000713372	0.146255	0.0100086	1	11	0.134635	0.000575677	-6.39813e-06	-0.000697663	0.00412694	0.00111854	0.00427584	15.1648	1.65581e-07
15847.7	229.316	64.3208	238.166	-15.6683	22.1715	-0.000663393	-0.000690142	0.156136	0.011388	1	11	0.136503	0.000573142	-6.59612e-06	-0.000136398	0.00404274	0.00113395	0.00419876	15.6683	-1.97995e-07
14121.9	233.108	67.6633	242.729	-16.1862	22.6315	-0.000673683	-0.000703894	0.166561	0.0129431	1	11	0.13796	0.000568368	-6.42294e-06	-0.000136398	0.00395651	0.00114844	0.00411982	16.1862	1.73182e-07
12590.9	237.171	71.1866	247.624	-16.707	23.0905	-0.000663952	-0.000673972	0.177568	0.0146749	1	11	0.139083	0.000561668	-6.64692e-06	-0.000216578	0.0038679	0.00116094	0.00403837	16.707	-2.23982e-07
11217.7	241.474	74.9261	252.832	-17.2384	23.5495	-0.000658285	-0.000633644	0.189358	0.0166298	1	11	0.139936	0.000553475	-6.63714e-06	2.39641e-05	0.00377754	0.00117212	0.0039552	17.2384	9.78229e-09
10002.2	246.026	78.8546	258.354	-17.7713	24.0085	-0.000664213	-0.000670256	0.201788	0.0187983	1	11	0.140569	0.000544092	-6.28602e-06	-0.000537302	0.00368595	0.0011814	0.00387065	17.7713	3.51121e-07
8914.93	250.802	82.9754	264.171	-18.3063	24.6329	-0.000632353	-0.000631972	0.215156	0.0212266	1	11	0.129289	0.000489412	-5.76396e-06	0.000264507	0.00359385	0.00118899	0.00378542	18.3063	5.22055e-07
7944	255.872	87.31	270.358	-18.841	25.159	-0.000633546	-0.000682522	0.229465	0.0239314	1	11	0.129582	0.0004793	-6.24902e-06	-0.00037694	0.00350062	0.0011945	0.0036988	18.841	-4.85058e-07
7082.23	261.143	91.8456	276.824	-19.3771	25.7359	-0.00061757	-0.000647954	0.244676	0.026934	1	11	0.129786	0.00046884	-6.2496e-06	2.39641e-05	0.00340778	0.00119854	0.00361241	19.3771	-5.81346e-10
6307.73	266.694	96.6502	283.667	-19.9205	26.3706	-0.000622379	-0.000798677	0.261062	0.0303062	1	11	0.129921	0.000458006	-6.30667e-06	2.39641e-05	0.00331433	0.00120111	0.00352526	19.9205	-5.70639e-08
5621.06	272.481	101.657	290.826	-20.4596	27.0713	-0.000614587	-0.000806669	0.278525	0.0340309	1	11	0.130002	0.000447008	-6.63426e-06	2.39641e-05	0.00322158	0.00120191	0.00343848	20.4596	-3.27594e-07
5011.6	278.487	106.939	298.314	-21.0068	27.8317	-0.000613748	-0.000858892	0.296966	0.0381621	1	11	0.130036	0.000435903	-7.15081e-06	0.000184326	0.00312938	0.00120168	0.00335217	21.0068	-5.16549e-07
4466.43	284.695	112.527	306.126	-21.5666	28.5917	-0.000611529	-0.000821165	0.316668	0.0427872	1	11	0.130048	0.000424818	-7.69632e-06	-5.62167e-05	0.00303793	0.00120075	0.00326663	21.5666	-5.45508e-07
3981.27	291.202	118.432	314.364	-22.1316	29.3517	-0.000618595	-0.000824324	0.337543	0.0479073	1	11	0.130036	0.00041365	-7.96991e-06	-0.000296759	0.00294665	0.00119841	0.00318103	22.1316	-2.73591e-07
3546.6	297.972	124.774	323.042	-22.7212	30.1119	-0.000610299	-0.000813174	0.359653	0.0536556	1	11	0.130014	0.000402469	-8.36904e-06	-0.000216578	0.00285534	0.00119566	0.00309557	22.7212	-3.99134e-07
3161.01	304.944	131.453	332.071	-23.3195	30.8717	-0.000612928	-0.000812988	0.383022	0.060021	1	11	0.129984	0.000391435	-8.72515e-06	2.39641e-05	0.00276541	0.00119209	0.00301141	23.3195	-3.56109e-07
2817.3	312.189	138.608	341.576	-23.9407	31.6319	-0.000607018	-0.000784926	0.407567	0.0671124	1	11	0.129944	0.000380425	-8.71206e-06	0.000264507	0.00267574	0.001188	0.00292761	23.9407	1.30876e-08
2510.8	319.442	146.039	351.242	-24.5684	32.3917	-0.000604632	-0.000772103	0.434048	0.0750351	1	11	0.129881	0.000369777	-8.61695e-06	2.39641e-05	0.00258928	0.00118374	0.00284704	24.5684	9.51147e-08
2237.85	327.495	154.586	362.146	-25.2686	33.4029	-0.000623796	-0.00011466	0.460063	0.0838288	1	12	0.134363	0.00037102	-8.77023e-06	-0.000136398	0.00249711	0.0011787	0.00276132	25.2686	-1.53278e-07
1995.64	335.496	163.368	373.157	-25.9635	34.1627	-0.000624952	-0.00010804	0.48817	0.0935666	1	12	0.133981	0.000359045	-8.52923e-06	-0.000457121	0.00240937	0.00117323	0.00267983	25.9635	2.40995e-07
1778.29	343.848	172.952	384.894	-26.702	34.923	-0.000622733	-0.000127957	0.517477	0.104486	1	12	0.133588	0.000347077	-8.61852e-06	0.000184326	0.00232104	0.00116746	0.00259812	26.702	-8.92903e-08
1585.51	352.466	183.24	397.252	-27.469	35.6827	-0.000626686	-0.000109868	0.547813	0.116557	1	12	0.133208	0.000335324	-8.93548e-06	-5.62167e-05	0.0022335	0.00116115	0.0025173	27.469	-3.16953e-07
1411.84	361.451	194.556	410.486	-28.292	36.4442	-0.000622528	-0.000105616	0.579417	0.130162	1	12	0.132841	0.000323618	-9.06741e-06	-0.000296759	0.00214513	0.00115464	0.00243614	28.292	-1.3193e-07
1258.79	370.699	206.715	424.439	-29.1456	37.2039	-0.000625884	-0.000115818	0.611638	0.14508	1	12	0.132496	0.000312166	-9.36696e-06	-0.000216578	0.00205774	0.00114747	0.00235605	29.1456	-2.99554e-07
1121.79	380.36	220.039	439.422	-30.0495	37.9624	-0.000622006	-0.000102148	0.644772	0.161676	1	12	0.132178	0.0003008	-9.21741e-06	0.000264507	0.00196985	0.00113956	0.00227572	30.0495	1.49551e-07
1000.32	390.343	234.503	455.367	-30.9958	38.7217	-0.000624318	-0.000109981	0.678474	0.179931	1	12	0.131885	0.000289623	-9.39365e-06	-0.000136398	0.00188245	0.0011309	0.00219603	30.9958	-1.76246e-07
891.427	400.83	250.42	472.626	-31.9952	39.4804	-0.000619863	-0.000103846	0.71296	0.200156	1	12	0.131612	0.000278471	-9.5391e-06	-0.000216578	0.00179443	0.00112107	0.00211584	31.9952	-1.45443e-07
794.238	411.897	267.887	491.348	-33.039	40.2399	-0.000619732	-0.000139336	0.748028	0.222353	1	12	0.131367	0.000267361	-9.3991e-06	-0.000136398	0.00170612	0.00110962	0.00203522	33.039	1.39996e-07
707.509	423.526	287.03	511.625	-34.1261	41.0014	-0.000617663	-8.72309e-05	0.783719	0.246667	1	12	0.131136	0.000256313	-9.63299e-06	0.000104145	0.00161799	0.00109654	0.00195456	34.1261	-2.33888e-07
631.01	435.717	307.801	533.47	-35.2383	41.7595	-0.000619658	-0.000111681	0.819434	0.272793	1	12	0.130935	0.00024544	-9.68194e-06	-0.000296759	0.00153103	0.00108156	0.00187452	35.2383	-4.8948e-08
562.339	448.741	330.661	557.409	-36.3852	42.5159	-0.000626611	-9.90928e-05	0.85593	0.301201	1	12	0.130748	0.000234563	-9.49738e-06	0.000505049	0.00144427	0.00106423	0.00179401	36.3852	1.84556e-07
501.444	462.469	355.551	583.347	-37.5534	43.2732	-0.000621298	-0.000105601	0.892681	0.331623	1	12	0.130585	0.000223854	-9.6755e-06	0.000184326	0.00135903	0.00104484	0.00171425	37.5534	-1.7812e-07
446.859	477.311	382.889	611.907	-38.7358	44.0299	-0.000620534	-9.28641e-05	0.930201	0.36421	1	12	0.130427	0.000213149	-9.47319e-06	0.000264507	0.00127477	0.00102259	0.00163424	38.7358	2.02313e-07
398.089	493.209	412.964	643.268	-39.9394	44.7927	-0.000621429	-0.000106627	0.968117	0.398995	1	12	0.130301	0.000202562	-9.48845e-06	0.000264507	0.00119192	0.000997993	0.00155456	39.9394	-1.5257e-08
354.66	510.303	445.573	677.454	-41.126	45.553	-0.000625437	-0.000128522	1.00714	0.43568	1	12	0.130172	0.000192149	-9.40258e-06	-0.000136398	0.00111191	0.000970866	0.00147611	41.126	8.58675e-08
316.316	528.531	481.129	714.724	-42.312	46.3099	-0.000617346	-8.27752e-05	1.04577	0.473897	1	12	0.130071	0.000181987	-9.56196e-06	0.000344687	0.00103465	0.000941856	0.00139914	42.312	-1.59384e-07
281.894	548.212	519.927	755.553	-43.4831	47.0654	-0.00062525	-0.000104465	1.0859	0.514217	1	12	0.129977	0.000172028	-9.52621e-06	2.39641e-05	0.000960326	0.000910778	0.00132353	43.4831	3.57539e-08
251.044	569.529	562.583	800.539	-44.6485	47.8219	-0.000624113	-9.58301e-05	1.12689	0.556533	1	12	0.129893	0.000162257	-9.69815e-06	0.000264507	0.00088869	0.000877852	0.00124916	44.6485	-1.71945e-07
223.925	592.285	608.37	849.067	-45.7675	48.5847	-0.000626928	-0.000112484	1.16829	0.599792	1	12	0.129818	0.000152895	-9.86211e-06	-5.62167e-05	0.000821574	0.000843886	0.00117776	45.7675	-1.63955e-07
199.553	616.824	658.595	902.341	-46.8758	49.3462	-0.00062402	-9.9001e-05	1.211	0.645118	1	12	0.129759	0.000143802	-1.00021e-05	-5.62167e-05	0.000757565	0.000808867	0.00110823	46.8758	-1.40021e-07
177.781	643.739	713.459	960.949	-47.9407	50.1142	-0.000624262	-6.42578e-05	1.25477	0.691675	1	12	0.129706	0.000134977	-1.00032e-05	0.000104145	0.000697122	0.000772624	0.00104064	47.9407	-1.07206e-09
158.428	672.429	772.92	1024.48	-48.9772	50.8807	-0.000620217	-8.66937e-05	1.29973	0.739796	1	12	0.129652	0.000126553	-1.00331e-05	2.39641e-05	0.000640673	0.000736418	0.000976102	48.9772	-2.98731e-08
141.311	703.402	837.106	1093.4	-49.9604	51.6339	-0.000630452	-0.000112374	1.34544	0.788618	1	12	0.129611	0.00011854	-9.9913e-06	-0.000296759	0.000588365	0.000700202	0.00091458	49.9604	4.17795e-08
125.846	736.958	907.778	1169.26	-50.9294	52.3894	-0.00061248	-0.000105716	1.39316	0.83973	1	12	0.129571	0.000110815	-1.00799e-05	-5.62167e-05	0.00053904	0.000663984	0.000855242	50.9294	-8.86464e-08
112.19	773.376	984.208	1251.71	-51.8403	53.1349	-0.00062018	-0.00010801	1.44138	0.89114	1	12	0.129546	0.000103495	-1.01982e-05	2.39641e-05	0.00049361	0.000628174	0.000798907	51.8403	-1.18228e-07
100.032	812.519	1067.01	1341.16	-52.7111	53.8947	-0.000623013	-9.26245e-05	1.49112	0.943824	1	12	0.129522	9.65746e-05	-1.02611e-05	-0.00037694	0.000451725	0.000593212	0.000745625	52.7111	-6.29717e-08
89.116	854.795	1158.43	1439.66	-53.5767	54.6618	-0.000618595	-9.62798e-05	1.54169	0.998187	1	12	0.129495	8.99479e-05	-1.0255e-05	0.000505049	0.000412421	0.000558917	0.000694607	53.5767	6.13754e-09
79.4155	900.756	1257.51	1546.83	-54.3859	55.4262	-0.000623591	-0.000118734	1.59369	1.05327	1	12	0.129482	8.37077e-05	-1.03106e-05	0.000104145	0.000376462	0.000525563	0.000646483	54.3859	-5.55827e-08
70.8387	949.576	1364.66	1662.52	-55.1685	56.1774	-0.0006254	-0.000102322	1.64636	1.10927	1	12	0.129463	7.78712e-05	-1.03009e-05	0.000104145	0.000343553	0.000493728	0.000601495	55.1685	9.69853e-09
63.0823	1003.67	1483.26	1790.93	-55.9152	56.9578	-0.000617812	-9.47696e-05	1.70096	1.16674	1	12	0.129451	7.22816e-05	-1.03457e-05	-0.000136398	0.000312921	0.000462446	0.000558369	55.9152	-4.47929e-08
56.2418	1061.46	1611.67	1929.81	-56.6306	57.7013	-0.000617271	-0.000115545	1.75584	1.22463	1	12	0.129441	6.70743e-05	-1.03031e-05	-5.62167e-05	0.00028502	0.000432759	0.000518186	56.6306	4.25585e-08
50.1444	1124.6	1751.5	2081.46	-57.2963	58.4582	-0.000615687	-0.00010527	1.81212	1.28313	1	12	0.129427	6.21808e-05	-1.0282e-05	2.39641e-05	0.000259574	0.000404272	0.000480432	57.2963	2.11571e-08
44.6712	1193.72	1905.55	2248.57	-57.9352	59.2222	-0.000620459	-0.000100123	1.8697	1.34276	1	12	0.129422	5.75573e-05	-1.03133e-05	2.39641e-05	0.000236095	0.000376882	0.000444726	57.9352	-3.13329e-08
39.8089	1269.53	2073.41	2431.21	-58.5212	59.9847	-0.000616022	-9.40431e-05	1.92821	1.40243	1	12	0.129413	5.32298e-05	-1.03607e-05	0.000104145	0.000214783	0.000350786	0.000411318	58.5212	-4.74299e-08
35.4653	1353.38	2258.72	2633.15	-59.0708	60.9831	-0.000620851	-3.09398e-05	1.9868	1.46194	1	13	0.129651	4.92379e-05	-1.02864e-05	-5.62167e-05	0.000195195	0.000325771	0.000379773	59.0708	7.43265e-08
31.6296	1444.2	2459.18	2851.89	-59.5756	61.7075	-0.000621373	-2.74236e-05	2.04615	1.52143	1	13	0.129609	4.54466e-05	-1.02624e-05	0.000264507	0.000177567	0.00030236	0.000350644	59.5756	2.39936e-08
28.1701	1546.27	2680.08	3094.15	-60.0173	62.5128	-0.000628718	-2.5259e-05	2.10807	1.5816	1	13	0.129566	4.18744e-05	-1.03583e-05	-0.000216578	0.000161511	0.00027994	0.00032319	60.0173	-9.58719e-08
25.1044	1659.44	2920.24	3358.8	-60.3923	63.2689	-0.000626444	-2.96088e-05	2.17096	1.64104	1	13	0.12953	3.85644e-05	-1.03926e-05	0.000424868	0.000147094	0.000258851	0.000297725	60.3923	-3.42735e-08
22.3854	1784.63	3182.48	3648.71	-60.7178	63.9554	-0.000617812	-2.4476e-05	2.23403	1.69958	1	13	0.129505	3.54934e-05	-1.03208e-05	-0.000136398	0.000134051	0.000239049	0.000274069	60.7178	7.17947e-08
19.9553	1926.35	3468.49	3967.52	-60.9528	64.7172	-0.000622808	-2.32232e-05	2.29944	1.75737	1	13	0.129484	3.26359e-05	-1.03759e-05	-0.000296759	0.000122376	0.000220344	0.000252046	60.9528	-5.51426e-08
17.7961	2085.19	3777.59	4314.88	-61.1017	65.5615	-0.000618735	-2.64329e-05	2.36745	1.81456	1	13	0.129464	3.0004e-05	-1.03724e-05	0.000344687	0.000111998	0.000202898	0.000231756	61.1017	3.53883e-09
15.8576	2265.99	4116.41	4698.88	-61.1682	66.284	-0.000627823	-3.07389e-05	2.43818	1.87117	1	13	0.129454	2.75499e-05	-1.03427e-05	0.000344687	0.000102629	0.000186436	0.000212817	61.1682	2.96142e-08
14.119	2473.04	4486.06	5122.57	-61.1333	67.0863	-0.000627376	-2.4551e-05	2.51276	1.92711	1	13	0.129439	2.52684e-05	-1.03016e-05	0.000184326	9.42443e-05	0.000170958	0.000195215	61.1333	4.11667e-08
12.6008	2703.08	4877.85	5576.74	-61.0068	67.9769	-0.000617001	-2.92112e-05	2.58937	1.98102	1	13	0.129427	2.32083e-05	-1.03918e-05	0.000184326	8.69157e-05	0.000156844	0.000179316	61.0068	-9.02617e-08
11.2249	2969.4	5306.9	6081.16	-60.7714	68.6609	-0.000626835	-2.77877e-05	2.67177	2.03473	1	13	0.129418	2.12818e-05	-1.02738e-05	-0.000136398	8.02963e-05	0.000143505	0.000164442	60.7714	1.18014e-07
10.0032	3272.29	5763.19	6627.39	-60.4125	69.4217	-0.000618688	-2.85988e-05	2.76069	2.08766	1	13	0.129408	1.95262e-05	-1.04281e-05	-0.000136398	7.45018e-05	0.000131214	0.000150889	60.4125	-1.54236e-07
8.91838	3618.34	6248.97	7220.94	-59.9279	70.266	-0.000618511	-2.59839e-05	2.85579	2.13873	1	13	0.129407	1.79211e-05	-1.03194e-05	-0.000216578	6.9394e-05	0.000119845	0.000138486	59.9279	1.08697e-07
7.93953	4017.17	6768.59	7870.92	-59.3108	71.2047	-0.000618707	-3.14365e-05	2.9616	2.19014	1	13	0.129402	1.64405e-05	-1.04527e-05	0.000264507	6.48438e-05	0.000109256	0.00012705	59.3108	-1.33342e-07
7.07654	4468.18	7305.32	8563.43	-58.5486	71.763	-0.000630489	-3.38137e-05	3.07865	2.24049	1	13	0.129398	1.51106e-05	-1.04699e-05	0.000505049	6.09305e-05	9.96194e-05	0.000116776	58.5486	-1.72312e-08
6.31058	4988.05	7874.87	9321.71	-57.6493	72.3832	-0.000627637	-3.10842e-05	3.20263	2.28562	1	13	0.1294	1.38815e-05	-1.04889e-05	-0.000136398	5.74037e-05	9.06259e-05	0.000107277	57.6493	-1.8968e-08
5.6205	5589.51	8462.33	10141.7	-56.5546	73.0696	-0.000626611	-3.48859e-06	3.34622	2.32978	1	13	0.12939	1.27583e-05	-1.04416e-05	0.000184326	5.43443e-05	8.22755e-05	9.8603e-05	56.5546	4.72943e-08
5.01444	6220.91	9028.35	10964.1	-55.4315	73.8272	-0.000635206	-1.7485e-05	3.51552	2.38376	1	13	0.129384	1.18007e-05	-1.03223e-05	0.000344687	5.175e-05	7.51043e-05	9.1207e-05	55.4315	1.19358e-07
4.46939	6936.9	9655.73	11889.2	-54.3057	74.6685	-0.00061633	-2.79036e-05	3.68796	2.43248	1	13	0.12939	1.0883e-05	-1.03166e-05	0.000344687	4.90747e-05	6.8309e-05	8.41098e-05	54.3057	5.61202e-09
3.97785	7764	10242.4	12852.5	-52.837	75.6052	-0.000609591	-4.37989e-05	3.90633	2.48084	1	13	0.129385	1.00669e-05	-1.04959e-05	-0.000216578	4.70013e-05	6.20051e-05	7.78059e-05	52.837	-1.79216e-07
3.55114	8650.85	10820.4	13853.4	-51.3578	76.6464	-0.000623302	-2.12839e-05	4.142	2.52685	1	13	0.129388	9.33975e-06	-1.04676e-05	-0.000216578	4.50758e-05	5.63803e-05	7.21842e-05	51.3578	2.82872e-08
3.1604	9635.48	11341.6	14882	-49.6499	77.8082	-0.000620319	-2.314e-05	4.4402	2.57887	1	13	0.129383	8.69387e-06	-1.03048e-05	0.000104145	4.35059e-05	5.12095e-05	6.71951e-05	49.6499	1.62789e-07
2.81836	10708.8	11839.5	15964.1	-47.8707	79.1027	-0.000606437	-3.81541e-05	4.7697	2.62343	1	13	0.129384	8.10471e-06	-1.05272e-05	2.39641e-05	4.20198e-05	4.64564e-05	6.26407e-05	47.8707	-2.22406e-07
2.51367	11833.9	12262.9	17041.7	-46.02	80.5467	-0.000617628	-2.22641e-05	5.16318	2.67349	1	13	0.129385	7.59225e-06	-1.04582e-05	0.000424868	4.07475e-05	4.22248e-05	5.86795e-05	46.02	6.89539e-08
2.23982	13029.3	12605.3	18128.9	-44.0524	82.1614	-0.000613347	-2.58621e-05	5.63705	2.72532	1	13	0.129387	7.13703e-06	-1.03599e-05	2.39641e-05	3.9644e-05	3.8354e-05	5.51605e-05	44.0524	9.83168e-08
1.99706	14275.3	12878.3	19225.9	-42.0547	83.9647	-0.000608943	-2.79433e-05	6.1883	2.7766	1	13	0.129385	6.72971e-06	-1.06253e-05	0.000184326	3.86201e-05	3.48405e-05	5.20132e-05	42.0547	-2.65336e-07
1.77961	15572.5	13056.4	20321.7	-39.9772	85.9829	-0.000607734	-2.44901e-05	6.8497	2.82745	1	13	0.129385	6.36684e-06	-1.03403e-05	0.000264507	3.77084e-05	3.16156e-05	4.92084e-05	39.9772	2.84999e-07
1.58469	16897.9	13102.4	21382.5	-37.7894	88.2421	-0.000606101	-2.71253e-05	7.66526	2.87812	1	13	0.129384	6.05093e-06	-1.06186e-05	-0.00037694	3.69586e-05	2.86571e-05	4.67672e-05	37.7894	-2.78315e-07
1.41224	18207.5	13052.1	22402.4	-35.6349	90.7711	-0.000607975	-2.67507e-05	8.63442	2.9309	1	13	0.129383	5.77539e-06	-1.04757e-05	2.39641e-05	3.62794e-05	2.60069e-05	4.4638e-05	35.6349	1.42883e-07
1.25967	19504.2	12972.6	23424.4	-33.6287	93.6	-0.000605353	-2.65942e-05	9.73943	2.98713	1	13	0.129383	5.52345e-06	-1.0524e-05	-5.62167e-05	3.5546e-05	2.36424e-05	4.26905e-05	33.6287	-4.83469e-08
1.12249	20787.6	12761.8	24392.3	-31.5463	96.7672	-0.000601255	-2.78487e-05	11.1104	3.04119	1	13	0.129384	5.30428e-06	-1.06579e-05	0.000104145	3.49379e-05	2.14488e-05	4.09965e-05	31.5463	-1.33846e-07
1.00006	21991.8	12417.3	25255.3	-29.4505	100.315	-0.000600881	-2.58806e-05	12.8164	3.09824	1	13	0.129383	5.123e-06	-1.04387e-05	0.000104145	3.44792e-05	1.94681e-05	3.95957e-05	29.4505	2.19207e-07