File: data/DE_65_2_60.mpt
EC-Lab ASCII FILE
Nb header lines : 60

Potentio Electrochemical Impedance Spectroscopy

Run on channel : 2 (SN 20919)
User :
CE vs. WE compliance from -10 V to 10 V
Electrode connection : standard
Ewe ctrl range : min = -10.00 V, max = 10.00 V
Acquisition started on : 02/20/2020 14:52:25
Technique started on : 02/20/2020 14:52:26
Saved on :
	File : DE_65_2_60.mpr
	Directory : P:\Chemistry\Data\VMP3\Kyler\DOE\DE_65\60C\
	Host : 10.0.4.64
Device : VMP3 (SN 1432)
Address : USB
EC-Lab for windows v11.33 (software)
Internet server v11.32 (firmware)
Command interpretor v11.33 (firmware)
Electrode material :
Initial state :
Electrolyte :
Comments :
Electrode surface area : 0.001 cm²
Characteristic mass : 0.001 g
Equivalent Weight : 0.000 g/eq.
Density : 0.000 g/cm3
Record Analogic IN 1
Cycle Definition : Charge/Discharge alternance
Mode                Single sine
E (V)               0.0000
vs.                 Eoc
tE (h:m:s)          0:00:0.0000
record              0
dI                  1.000
unit dI             mA
dt (s)              0.000
fi                  1.000
unit fi             MHz
ff                  1.000
unit ff             Hz
Nd                  20
Points              per decade
spacing             Logarithmic
Va (mV)             128.0
pw                  0.50
Na                  3
corr                0
E range min (V)     -10.000
E range max (V)     10.000
I Range             Auto
Bandwidth           5
nc cycles           0
goto Ns'            0
nr cycles           0
inc. cycle          1

freq/Hz	Re(Z)/Ohm	-Im(Z)/Ohm	|Z|/Ohm	Phase(Z)/deg	time/s	<Ewe>/V	<I>/mA	Cs/µF	Cp/µF	cycle number	I Range	|Ewe|/V	|I|/A	(Q-Qo)/mA.h	Analog IN 1/V	Re(Y)/Ohm-1	Im(Y)/Ohm-1	|Y|/Ohm-1	Phase(Y)/deg	dq/mA.h
1.00002e+06	-1.01979	-4.53062	4.64397	102.685	1.98249	-0.00286073	-0.396729	-0.0351281	-0.0334342	1	9	0.000330448	7.11564e-05	-0.000104669	0.000344687	-0.047286	-0.210077	0.215333	-102.685	-0.000104669
891247	7.5985	-5.77799	9.5458	37.2498	2.88148	-0.00233108	-0.269651	-0.0309062	-0.0113233	1	10	0.000498639	5.22364e-05	-0.00017578	0.000184326	0.0833879	-0.0634091	0.104758	-37.2498	-7.11116e-05
794333	7.42006	-5.65801	9.33115	37.3266	3.47749	-0.00198134	-0.228685	-0.0354123	-0.01302	1	10	0.000790826	8.47512e-05	-0.00021291	-0.000296759	0.0852191	-0.0649821	0.107168	-37.3266	-3.71292e-05
707950	7.48898	-5.32938	9.19168	35.4368	4.07347	-0.00168099	-0.194413	-0.0421833	-0.0141809	1	10	0.00120424	0.000131014	-0.000244349	2.39641e-05	0.0886405	-0.0630792	0.108794	-35.4368	-3.14393e-05
630957	7.64212	-4.95312	9.10689	32.9487	4.66947	-0.00142037	-0.164775	-0.0509262	-0.0150647	1	10	0.00176309	0.000193599	-0.000271007	-5.62167e-05	0.0921454	-0.0597226	0.109807	-32.9487	-2.66579e-05
562342	7.74634	-4.52836	8.97284	30.3098	5.26549	-0.00122833	-0.1425	-0.0624997	-0.0159185	1	10	0.00248354	0.000276784	-0.000293947	0.000264507	0.0962136	-0.0562447	0.111447	-30.3098	-2.29399e-05
501206	7.84191	-4.08677	8.84292	27.526	5.86249	-0.00106575	-0.123668	-0.0777005	-0.0165956	1	10	0.00340963	0.000385577	-0.00031303	0.000344687	0.100284	-0.0522623	0.113085	-27.526	-1.90832e-05
446686	7.89976	-3.64717	8.70104	24.7819	6.45849	-0.000943939	-0.109141	-0.0976926	-0.0171645	1	10	0.00457235	0.000525494	-0.000329323	-5.62167e-05	0.104345	-0.0481741	0.114929	-24.7819	-1.62926e-05
398103	7.93948	-3.25849	8.58214	22.314	7.0535	-0.000891665	-0.103518	-0.12269	-0.0176868	1	10	0.00602323	0.000701833	-0.000346451	0.000104145	0.107796	-0.044241	0.116521	-22.314	-1.71284e-05
354810	7.95407	-2.8904	8.46296	19.9705	7.64849	-0.000876714	-0.100053	-0.155191	-0.0181025	1	10	0.00782758	0.000924922	-0.000362528	-5.62167e-05	0.111057	-0.0403565	0.118162	-19.9705	-1.60772e-05
316230	7.97044	-2.55767	8.37076	17.7912	8.2435	-0.000878392	-0.101345	-0.196776	-0.018371	1	10	0.0101051	0.00120719	-0.000378464	0.000184326	0.11375	-0.0365019	0.119463	-17.7912	-1.59356e-05
281835	7.98018	-2.2648	8.29533	15.8441	8.83848	-0.000894965	-0.103783	-0.249342	-0.0185861	1	10	0.0130078	0.00156808	-0.000391798	-5.62167e-05	0.11597	-0.0329126	0.12055	-15.8441	-1.33339e-05
251188	7.9887	-2.00402	8.23622	14.0825	9.43348	-0.000899868	-0.103376	-0.316169	-0.0187184	1	10	0.016778	0.0020371	-0.000407501	0.000184326	0.117766	-0.0295424	0.121415	-14.0825	-1.57037e-05
223872	7.98936	-1.76921	8.18291	12.4864	10.0285	-0.000889521	-0.101964	-0.401829	-0.0187838	1	10	0.0217292	0.00265544	-0.000423685	-5.62167e-05	0.119315	-0.0264219	0.122206	-12.4864	-1.61837e-05
199544	7.99166	-1.56403	8.14327	11.0733	10.6245	-0.000895822	-0.103141	-0.50996	-0.0188118	1	10	0.0283404	0.00348022	-0.000438143	-0.000617483	0.120514	-0.0235857	0.122801	-11.0733	-1.44576e-05
177832	7.99536	-1.38087	8.11373	9.79886	11.2205	-0.000887731	-0.101615	-0.648122	-0.0187726	1	10	0.0371277	0.00457591	-0.000458773	2.39641e-05	0.12145	-0.0209756	0.123248	-9.79886	-2.06309e-05
158486	8.00023	-1.2188	8.09253	8.66216	11.8165	-0.00087647	-0.101121	-0.823942	-0.0186893	1	10	0.0484962	0.0059927	-0.000480502	0.000104145	0.122161	-0.0186107	0.123571	-8.66216	-2.17288e-05
141256	8.00413	-1.07682	8.07624	7.66216	12.4125	-0.00087744	-0.100907	-1.04634	-0.0186011	1	10	0.0626601	0.00775857	-0.000499743	-0.000216578	0.122715	-0.0165091	0.12382	-7.66216	-1.92403e-05
125909	8.01035	-0.950589	8.06655	6.76765	13.0095	-0.000854937	-0.0992413	-1.32975	-0.0184663	1	10	0.079412	0.0098446	-0.000524664	0.000104145	0.123105	-0.0146089	0.123969	-6.76765	-2.49213e-05
112205	8.01472	-0.838042	8.05841	5.96932	13.6055	-0.000840321	-0.0960242	-1.69255	-0.0183052	1	10	0.0984796	0.0122207	-0.000552132	-5.62167e-05	0.123421	-0.0129053	0.124094	-5.96932	-2.74681e-05
100004	8.01903	-0.738591	8.05297	5.26236	14.0655	-0.000851562	-0.09749	-2.15477	-0.0181257	1	10	0.11921	0.0148033	-0.000573842	0.000184326	0.123654	-0.0113892	0.124178	-5.26236	-2.17103e-05
89129.3	8.02422	-0.650215	8.05052	4.63265	14.5255	-0.000831725	-0.0949574	-2.74626	-0.0179147	1	10	0.139948	0.0173837	-0.000583149	0.00058523	0.12381	-0.0100325	0.124216	-4.63265	-9.30694e-06
79433.3	8.02995	-0.571932	8.05029	4.074	15.1215	-0.000814127	-0.0931409	-3.50327	-0.0176823	1	10	0.131152	0.0162915	-0.000574474	-0.000216578	0.123905	-0.00882513	0.124219	-4.074	8.67505e-06
70795	8.03496	-0.502303	8.05064	3.57717	15.7175	-0.000781447	-0.0897412	-4.4756	-0.017423	1	10	0.130452	0.016204	-0.000586832	-0.000296759	0.123972	-0.00775005	0.124214	-3.57717	-1.23576e-05
63093.8	8.03942	-0.440735	8.05149	3.13792	16.3135	-0.000776003	-0.088956	-5.72342	-0.0171498	1	10	0.130345	0.0161889	-0.000613642	0.000104145	0.124014	-0.0067987	0.124201	-3.13792	-2.68099e-05
56237	8.04436	-0.386568	8.05364	2.7512	16.9095	-0.000745336	-0.085256	-7.32104	-0.016867	1	10	0.130287	0.0161774	-0.000628745	-0.000457121	0.124024	-0.00595993	0.124167	-2.7512	-1.51032e-05
50122.5	8.04912	-0.338295	8.05622	2.40666	17.5055	-0.000740433	-0.0839543	-9.38624	-0.0165509	1	10	0.130135	0.0161533	-0.000644508	0.000104145	0.124018	-0.00521235	0.124128	-2.40666	-1.57633e-05
44666.7	8.05328	-0.295768	8.05871	2.10333	18.1005	-0.000718547	-0.0822907	-12.0472	-0.0162277	1	10	0.130025	0.0161347	-0.000650284	-5.62167e-05	0.124006	-0.00455429	0.124089	-2.10333	-5.77542e-06
39814.1	8.05732	-0.25795	8.06145	1.83367	18.6965	-0.000707249	-0.0800659	-15.497	-0.015867	1	10	0.12985	0.0161076	-0.000670612	-0.000136398	0.123984	-0.00396927	0.124047	-1.83367	-2.03279e-05
35481	8.06129	-0.223863	8.06439	1.5907	19.1555	-0.000713326	-0.0809722	-20.0374	-0.0154406	1	10	0.139823	0.0173383	-0.000686329	-0.000296759	0.123954	-0.00344222	0.124002	-1.5907	-1.57175e-05
31621.1	8.06507	-0.19394	8.0674	1.37752	19.7525	-0.000706131	-0.080644	-25.9522	-0.0149984	1	10	0.130955	0.0162326	-0.000677099	0.000264507	0.12392	-0.0029799	0.123956	-1.37752	9.23038e-06
28188.1	8.06844	-0.166862	8.07017	1.18475	20.2125	-0.000717745	-0.0810916	-33.8375	-0.0144659	1	10	0.139167	0.0172446	-0.000669557	-0.00037694	0.123887	-0.00256207	0.123913	-1.18475	7.54208e-06
25116.9	8.07178	-0.142675	8.07304	1.01264	20.8075	-0.000696604	-0.0795903	-44.4126	-0.0138716	1	10	0.130427	0.0161558	-0.000676371	-0.000697663	0.12385	-0.00218914	0.123869	-1.01264	-6.81448e-06
22389	8.07479	-0.121185	8.07569	0.859822	21.2665	-0.000693118	-0.0786131	-58.6591	-0.0132091	1	10	0.136829	0.0169433	-0.000700747	0.000104145	0.123814	-0.00185819	0.123828	-0.859822	-2.43762e-05
19948.8	8.07741	-0.101324	8.07805	0.718685	21.8615	-0.000690564	-0.0791055	-78.7395	-0.012388	1	10	0.129817	0.0160703	-0.000689546	0.000505049	0.123783	-0.00155274	0.123792	-0.718685	1.1201e-05
17786.9	8.08067	-0.0840671	8.0811	0.596054	22.3215	-0.000688588	-0.0782867	-106.437	-0.0115187	1	10	0.134566	0.0166519	-0.000703985	-5.62167e-05	0.123739	-0.00128731	0.123745	-0.596054	-1.44383e-05
15847.7	8.08266	-0.0678909	8.08295	0.481248	22.7815	-0.000689632	-0.0786149	-147.925	-0.0104358	1	10	0.138773	0.0171686	-0.000728712	0.000184326	0.123713	-0.00103913	0.123717	-0.481248	-2.47273e-05
14121.9	8.08561	-0.0528995	8.08578	0.374848	23.3765	-0.000684021	-0.07769	-213.047	-0.00911875	1	10	0.129688	0.016039	-0.000710943	0.000264507	0.123671	-0.00080911	0.123674	-0.374848	1.77687e-05
12590.9	8.08842	-0.0393637	8.08851	0.278838	23.8365	-0.000696138	-0.078477	-321.119	-0.00760538	1	10	0.132502	0.0163815	-0.000711846	-0.000457121	0.123631	-0.000601671	0.123632	-0.278838	-9.02862e-07
11217.7	8.09085	-0.0265593	8.09089	0.188081	24.2965	-0.000682958	-0.0780704	-534.194	-0.00575626	1	10	0.134903	0.0166734	-0.000715999	-5.62167e-05	0.123595	-0.000405718	0.123596	-0.188081	-4.15306e-06
10002.2	8.09316	-0.0142005	8.09317	0.100532	24.7565	-0.000684393	-0.077675	-1120.52	-0.00344975	1	10	0.136893	0.0169146	-0.000715295	-5.62167e-05	0.123561	-0.000216803	0.123561	-0.100532	7.04325e-07
8914.93	8.09603	-0.00300716	8.09603	0.0212817	25.2389	-0.000657902	-0.0745755	-5936.71	-0.000819058	1	10	0.138551	0.0171134	-0.000734698	0.000184326	0.123517	-4.58788e-05	0.123517	-0.0212817	-1.94037e-05
7944	8.09839	0.00788494	8.0984	-0.0557856	25.765	-0.000640434	-0.0725595	2540.87	0.00240869	1	10	0.139916	0.017277	-0.000735383	-0.000537302	0.123481	0.000120226	0.123481	0.0557856	-6.84041e-07
7082.23	8.10164	0.0190524	8.10166	-0.13474	26.5109	-0.000631076	-0.0713082	1179.51	0.00652304	1	10	0.12932	0.0159621	-0.00071643	-0.00037694	0.123431	0.000290269	0.123431	0.13474	1.89522e-05
6307.73	8.1046	0.0296428	8.10465	-0.20956	27.1446	-0.000630405	-0.070027	851.191	0.0113867	1	10	0.13015	0.0160587	-0.000741714	0.000104145	0.123385	0.000451285	0.123386	0.20956	-2.52832e-05
5621.06	8.10837	0.0401268	8.10847	-0.283544	27.8453	-0.000622575	-0.0688838	705.614	0.0172806	1	10	0.130815	0.0161331	-0.00076374	-0.000136398	0.123326	0.000610319	0.123328	0.283544	-2.20264e-05
5011.6	8.11241	0.0508702	8.11257	-0.359278	28.6057	-0.00061605	-0.0689602	624.28	0.0245466	1	10	0.131346	0.0161905	-0.000789812	-0.000136398	0.123263	0.000772942	0.123266	0.359278	-2.60722e-05
4466.43	8.11713	0.0615172	8.11736	-0.434219	29.3657	-0.000613663	-0.0692978	579.246	0.033268	1	10	0.131772	0.0162334	-0.000818272	0.000264507	0.123189	0.000933613	0.123193	0.434219	-2.84601e-05
3981.27	8.12153	0.0726832	8.12186	-0.512751	30.1247	-0.00060671	-0.0675671	550.002	0.0440475	1	10	0.13211	0.016266	-0.000826825	-0.000216578	0.12312	0.00110185	0.123125	0.512751	-8.55287e-06
3546.6	8.12747	0.0833829	8.1279	-0.587799	30.8849	-0.000613663	-0.0686301	538.185	0.0566408	1	10	0.132393	0.0162887	-0.000842917	-5.62167e-05	0.123027	0.00126218	0.123033	0.587799	-1.60914e-05
3161.01	8.13318	0.0951896	8.13373	-0.670551	31.6447	-0.000612992	-0.0686749	528.938	0.0724442	1	10	0.132607	0.0163033	-0.000851056	0.000665411	0.122936	0.00143883	0.122945	0.670551	-8.13945e-06
2817.3	8.14044	0.107283	8.14115	-0.755058	32.405	-0.000611296	-0.0680464	526.571	0.0914423	1	10	0.13278	0.0163097	-0.000853221	0.000344687	0.122822	0.00161867	0.122833	0.755058	-2.16506e-06
2510.8	8.14823	0.119127	8.1491	-0.837603	33.1647	-0.00061495	-0.0683243	532.105	0.11371	1	10	0.132913	0.0163102	-0.000859205	0.000104145	0.1227	0.00179387	0.122713	0.837603	-5.984e-06
2237.85	8.15753	0.131831	8.1586	-0.92586	33.925	-0.000614912	-0.0684697	539.473	0.140856	1	10	0.133017	0.0163039	-0.000885682	-0.000136398	0.122554	0.00198056	0.12257	0.92586	-2.64765e-05
1995.64	8.16819	0.144383	8.16946	-1.01267	34.6847	-0.000608033	-0.0672613	552.361	0.172531	1	10	0.133104	0.0162929	-0.000886823	-5.62167e-05	0.122388	0.00216336	0.122407	1.01267	-1.14099e-06
1778.29	8.18154	0.157705	8.18306	-1.10428	35.4449	-0.000618455	-0.0689546	567.508	0.210781	1	10	0.133171	0.016274	-0.00091494	0.000104145	0.122181	0.00235513	0.122204	1.10428	-2.81174e-05
1585.51	8.19546	0.169845	8.19722	-1.18725	36.2047	-0.000600912	-0.0669908	591.014	0.25373	1	10	0.133221	0.016252	-0.000935039	-0.000136398	0.121966	0.00252767	0.121993	1.18725	-2.00994e-05
1411.84	8.2116	0.182383	8.21362	-1.27236	36.9662	-0.000621288	-0.0685798	618.088	0.304756	1	10	0.133257	0.0162239	-0.000961325	-5.62167e-05	0.121719	0.00270344	0.121749	1.27236	-2.62858e-05
1258.79	8.22892	0.193921	8.2312	-1.34997	37.726	-0.000616534	-0.0683709	651.991	0.36188	1	10	0.13328	0.016192	-0.000985178	0.000264507	0.121455	0.00286219	0.121489	1.34997	-2.38526e-05
1121.79	8.24837	0.205	8.25092	-1.4237	38.4844	-0.000617578	-0.0688409	692.074	0.427225	1	10	0.133306	0.0161565	-0.000996457	2.39641e-05	0.121161	0.00301127	0.121199	1.4237	-1.1279e-05
1000.32	8.26942	0.214689	8.27221	-1.48717	39.2437	-0.00062401	-0.069488	741.089	0.499171	1	10	0.13332	0.0161166	-0.00102611	-0.000216578	0.120846	0.00313739	0.120887	1.48717	-2.96487e-05
891.427	8.29195	0.222404	8.29493	-1.5364	40.0024	-0.000609432	-0.0679718	802.77	0.577102	1	10	0.133331	0.0160737	-0.00105345	2.39641e-05	0.120512	0.00323235	0.120556	1.5364	-2.73421e-05
794.238	8.31649	0.228807	8.31964	-1.57595	40.762	-0.000617839	-0.0682497	875.792	0.662414	1	10	0.13334	0.0160272	-0.00105734	2.39641e-05	0.120152	0.00330567	0.120198	1.57595	-3.89418e-06
707.509	8.34134	0.232541	8.34459	-1.59688	41.5235	-0.000610606	-0.0676212	967.361	0.751238	1	10	0.133345	0.0159799	-0.00108391	0.000344687	0.119792	0.00333956	0.119838	1.59688	-2.65684e-05
631.01	8.36672	0.233904	8.36999	-1.60137	42.2814	-0.00061288	-0.0671737	1078.32	0.842116	1	10	0.133343	0.0159311	-0.00109181	-0.000136398	0.119428	0.00333878	0.119474	1.60137	-7.90352e-06
562.339	8.39192	0.232783	8.39515	-1.58892	43.0379	-0.00061344	-0.0683169	1215.82	0.934796	1	10	0.133343	0.0158833	-0.00109285	2.39641e-05	0.119071	0.0033029	0.119116	1.58892	-1.03644e-06
501.444	8.41721	0.228321	8.42031	-1.5538	43.7952	-0.000614409	-0.0684082	1390.12	1.02209	1	10	0.133346	0.0158363	-0.0011139	0.000104145	0.118717	0.00322026	0.118761	1.5538	-2.10547e-05
446.859	8.44142	0.222903	8.44436	-1.51259	44.5519	-0.000609096	-0.0681359	1597.84	1.11335	1	10	0.133342	0.0157907	-0.00111705	-5.62167e-05	0.118381	0.00312595	0.118422	1.51259	-3.14453e-06
398.089	8.46418	0.215038	8.46692	-1.45532	45.3147	-0.000614558	-0.0679457	1859.2	1.19923	1	10	0.133338	0.0157481	-0.00113576	0.000104145	0.118069	0.0029996	0.118107	1.45532	-1.87093e-05
354.66	8.48503	0.205038	8.48751	-1.38426	46.0739	-0.000606635	-0.0679084	2188.64	1.27727	1	10	0.133336	0.0157097	-0.00115936	-0.00037694	0.117786	0.00284625	0.11782	1.38426	-2.36061e-05
316.316	8.50365	0.19422	8.50586	-1.30839	46.8309	-0.000614353	-0.0684455	2590.63	1.35069	1	10	0.133336	0.0156757	-0.00116258	0.000184326	0.117535	0.00268446	0.117566	1.30839	-3.2145e-06
281.894	8.51928	0.182452	8.52123	-1.22688	47.5864	-0.000614428	-0.0683373	3094.46	1.41866	1	10	0.133334	0.0156473	-0.00119073	0.000184326	0.117327	0.00251272	0.117354	1.22688	-2.81557e-05
251.044	8.53442	0.169718	8.53611	-1.13925	48.3429	-0.000612955	-0.0687793	3735.45	1.47665	1	10	0.133335	0.0156201	-0.00121003	-0.000136398	0.117126	0.0023292	0.117149	1.13925	-1.92995e-05
223.925	8.54758	0.157477	8.54903	-1.05547	49.1057	-0.00062168	-0.068798	4513.37	1.53144	1	10	0.133334	0.0155964	-0.00122748	0.000264507	0.116952	0.00215468	0.116972	1.05547	-1.74466e-05
199.553	8.55801	0.144608	8.55923	-0.968056	49.8672	-0.000621195	-0.0689416	5515.31	1.57429	1	10	0.133327	0.0155769	-0.00122218	0.000264507	0.116816	0.00197389	0.116833	0.968056	5.30367e-06
177.781	8.56797	0.132792	8.569	-0.887938	50.6352	-0.000617728	-0.0685015	6741.58	1.619	1	10	0.133328	0.0155594	-0.00122217	0.000344687	0.116686	0.00180848	0.1167	0.887938	6.01418e-09
158.428	8.57581	0.121172	8.57667	-0.809507	51.4017	-0.000614223	-0.0682086	8290.59	1.65482	1	10	0.133325	0.015545	-0.00124731	0.000184326	0.116584	0.00164727	0.116595	0.809507	-2.51358e-05
141.311	8.58268	0.110698	8.5834	-0.738949	52.1549	-0.000605051	-0.0674179	10174.3	1.69225	1	10	0.133325	0.0155329	-0.00125265	-0.000216578	0.116494	0.00150252	0.116504	0.738949	-5.34767e-06
125.846	8.58833	0.0998206	8.58891	-0.665908	52.9104	-0.00061083	-0.0672202	12669.6	1.7113	1	10	0.133325	0.0155229	-0.00127352	0.000424868	0.116421	0.00135314	0.116429	0.665908	-2.08623e-05
112.19	8.59301	0.0906704	8.59349	-0.604542	53.6559	-0.000610252	-0.0675969	15645.9	1.74178	1	10	0.133324	0.0155145	-0.00129136	-5.62167e-05	0.116361	0.0012278	0.116367	0.604542	-1.78441e-05
100.032	8.59701	0.0819725	8.5974	-0.546299	54.4157	-0.000609171	-0.0663027	19409.4	1.76447	1	10	0.133324	0.0155075	-0.0012955	0.000104145	0.116309	0.00110901	0.116314	0.546299	-4.13865e-06
89.116	8.60024	0.073902	8.60056	-0.492331	55.1817	-0.000609562	-0.0674384	24166.2	1.7843	1	10	0.133324	0.0155018	-0.00130773	0.000184326	0.116267	0.000999086	0.116271	0.492331	-1.22274e-05
79.4155	8.60294	0.0667531	8.6032	-0.444568	55.9462	-0.00061577	-0.068065	30022.3	1.80745	1	10	0.133321	0.0154966	-0.00132622	0.000344687	0.116232	0.000901885	0.116236	0.444568	-1.84973e-05
70.8387	8.60502	0.0598364	8.60522	-0.39841	56.6974	-0.000622425	-0.0682571	37547.7	1.81548	1	10	0.133322	0.0154931	-0.00134161	-0.000296759	0.116206	0.000808056	0.116208	0.39841	-1.5385e-05
63.0823	8.60615	0.0530572	8.60631	-0.353226	57.4778	-0.00061124	-0.0675951	47551.9	1.80727	1	10	0.133314	0.0154903	-0.00134828	0.000184326	0.116192	0.000716325	0.116194	0.353226	-6.67473e-06
56.2418	8.60837	0.0485746	8.60851	-0.3233	58.2213	-0.000610364	-0.0679364	58257.5	1.85487	1	10	0.13332	0.015487	-0.00137504	2.39641e-05	0.116162	0.00065547	0.116164	0.3233	-2.67534e-05
50.1444	8.60983	0.0435815	8.60994	-0.290019	58.9782	-0.000614148	-0.0676641	72827.6	1.86595	1	10	0.133323	0.0154848	-0.00139975	-0.000216578	0.116143	0.000587898	0.116145	0.290019	-2.47163e-05
44.6712	8.61038	0.0391734	8.61046	-0.260668	59.7422	-0.000610997	-0.0679904	90949.7	1.88248	1	10	0.133317	0.0154831	-0.00140804	-0.000296759	0.116137	0.00052837	0.116138	0.260668	-8.28204e-06
39.8089	8.61161	0.0354479	8.61168	-0.235845	60.5047	-0.00060712	-0.0676529	112784	1.91097	1	10	0.133323	0.0154817	-0.00142604	0.000184326	0.11612	0.000477985	0.116121	0.235845	-1.80006e-05
35.4653	8.61244	0.0318627	8.6125	-0.211971	61.2551	-0.000614763	-0.0684175	140842	1.92771	1	10	0.133323	0.0154802	-0.00142892	-5.62167e-05	0.11611	0.000429561	0.11611	0.211971	-2.88004e-06
31.6296	8.61301	0.0283012	8.61306	-0.188265	61.9794	-0.000612974	-0.0683205	177796	1.91963	1	10	0.133321	0.015479	-0.00145633	-5.62167e-05	0.116102	0.000381496	0.116103	0.188265	-2.7409e-05