File: data/DE_65_5_60.mpt
EC-Lab ASCII FILE
Nb header lines : 60

Potentio Electrochemical Impedance Spectroscopy

Run on channel : 4 (SN 4192)
User :
CE vs. WE compliance from -10 V to 10 V
Electrode connection : standard
Ewe ctrl range : min = -10.00 V, max = 10.00 V
Acquisition started on : 02/20/2020 14:56:21
Technique started on : 02/20/2020 14:56:22
Saved on :
	File : DE_65_5_60.mpr
	Directory : P:\Chemistry\Data\VMP3\Kyler\DOE\DE_65\60C\
	Host : 10.0.4.64
Device : VMP3 (SN 1432)
Address : USB
EC-Lab for windows v11.33 (software)
Internet server v11.32 (firmware)
Command interpretor v11.33 (firmware)
Electrode material :
Initial state :
Electrolyte :
Comments :
Electrode surface area : 0.001 cm²
Characteristic mass : 0.001 g
Equivalent Weight : 0.000 g/eq.
Density : 0.000 g/cm3
Record Analogic IN 1
Cycle Definition : Charge/Discharge alternance
Mode                Single sine
E (V)               0.0000
vs.                 Eoc
tE (h:m:s)          0:00:0.0000
record              0
dI                  1.000
unit dI             mA
dt (s)              0.000
fi                  1.000
unit fi             MHz
ff                  1.000
unit ff             Hz
Nd                  20
Points              per decade
spacing             Logarithmic
Va (mV)             128.0
pw                  0.50
Na                  3
corr                0
E range min (V)     -10.000
E range max (V)     10.000
I Range             Auto
Bandwidth           5
nc cycles           0
goto Ns'            0
nr cycles           0
inc. cycle          1

freq/Hz	Re(Z)/Ohm	-Im(Z)/Ohm	|Z|/Ohm	Phase(Z)/deg	time/s	<Ewe>/V	<I>/mA	Cs/µF	Cp/µF	cycle number	I Range	|Ewe|/V	|I|/A	(Q-Qo)/mA.h	Analog IN 1/V	Re(Y)/Ohm-1	Im(Y)/Ohm-1	|Y|/Ohm-1	Phase(Y)/deg	dq/mA.h
1.00002e+06	101.903	46.5532	112.033	-24.5528	1.95148	-0.0305003	0.00033675	0.00341871	0.000590297	1	11	0.00339808	3.03311e-05	1.44333e-07	-0.000644957	0.00811885	0.00370901	0.00892595	24.5528	1.44333e-07
891247	104.688	42.888	113.133	-22.2776	2.54748	-0.0302042	0.000402821	0.00416377	0.000598387	1	11	0.00480102	4.24371e-05	3.18206e-07	-0.000564764	0.0081794	0.00335089	0.00883918	22.2776	1.73873e-07
794333	108.269	40.0672	115.445	-20.308	3.14248	-0.0300352	0.000943489	0.00500068	0.000602359	1	11	0.00666931	5.77704e-05	5.29557e-07	-0.00048457	0.00812369	0.00300634	0.00866213	20.308	2.11351e-07
707950	112.347	37.9979	118.599	-18.6865	3.73849	-0.0299028	0.00118153	0.0059164	0.000607319	1	11	0.00922848	7.78126e-05	7.77419e-07	-0.000404376	0.00798731	0.00270147	0.00843179	18.6865	2.47863e-07
630957	116.345	36.3175	121.882	-17.336	4.33447	-0.0297907	0.00142032	0.00694551	0.000616682	1	11	0.0124305	0.000101988	9.07721e-07	-8.36012e-05	0.00783198	0.00244479	0.00820469	17.336	1.30302e-07
562342	118.857	34.336	123.717	-16.1132	4.92948	-0.0297229	0.00149197	0.00824271	0.000634906	1	11	0.0161388	0.000130449	1.04821e-06	-0.000404376	0.00776542	0.00224331	0.00808296	16.1132	1.4049e-07
501206	123.003	32.9862	127.349	-15.012	5.52647	-0.0296736	0.00181842	0.00962656	0.000645869	1	11	0.0205983	0.000161747	1.2234e-06	7.67863e-05	0.00758444	0.00203395	0.00785243	15.012	1.75185e-07
446686	125.724	31.3271	129.569	-13.9916	6.12249	-0.0296031	0.00183406	0.0113736	0.000664873	1	11	0.025711	0.000198436	1.27379e-06	-0.000163795	0.00748894	0.00186604	0.00771792	13.9916	5.0398e-08
398103	128.269	29.63	131.646	-13.0072	6.71847	-0.0295457	0.00200175	0.0134925	0.0006835	1	11	0.0316265	0.000240239	1.31759e-06	-0.000324182	0.00740121	0.00170968	0.00759611	13.0072	4.37955e-08
354810	131.22	28.0924	134.194	-12.0838	7.31449	-0.0294719	0.00185304	0.0159674	0.000699758	1	11	0.038386	0.000286049	1.69203e-06	-0.000805345	0.00728679	0.00156	0.00745191	12.0838	3.74437e-07
316230	133.427	26.4714	136.028	-11.2215	7.90947	-0.0294378	0.00199356	0.0190125	0.000720012	1	11	0.0460544	0.000338566	1.43443e-06	-0.000564764	0.0072109	0.00143061	0.00735145	11.2215	-2.57594e-07
281835	135.536	24.8639	137.798	-10.3952	8.50548	-0.0294682	0.00187687	0.022712	0.000739452	1	11	0.0546771	0.000396791	1.95738e-06	-0.000564764	0.00713789	0.00130944	0.007257	10.3952	5.22948e-07
251188	137.144	23.2612	139.103	-9.62642	9.10047	-0.0294752	0.00192433	0.0272389	0.000761698	1	11	0.0642638	0.000461987	2.88274e-06	-0.000564764	0.0070877	0.00120216	0.00718892	9.62642	9.25364e-07
223872	138.43	21.7076	140.122	-8.91214	9.69547	-0.0294688	0.00211231	0.0327498	0.000785998	1	11	0.0748711	0.000534328	3.79988e-06	7.67863e-05	0.00705048	0.00110561	0.00713664	8.91214	9.17132e-07
199544	139.759	20.2457	141.218	-8.24264	10.2925	-0.0294904	0.00203079	0.0393958	0.000809726	1	11	0.0864669	0.000612296	4.62775e-06	-0.000163795	0.00700812	0.00101521	0.00708127	8.24264	8.27869e-07
177832	140.922	18.8879	142.182	-7.63387	10.8875	-0.0294995	0.00203675	0.0473836	0.000836183	1	11	0.0989961	0.000696261	4.80457e-06	-3.40745e-06	0.00697088	0.00093431	0.00703322	7.63387	1.76824e-07
158486	141.785	17.5924	142.872	-7.07303	11.4845	-0.0294856	0.00165894	0.0570825	0.000865488	1	11	0.112421	0.000786868	4.10409e-06	-0.000805345	0.00694601	0.000861851	0.00699927	7.07303	-7.00483e-07
141256	142.657	16.407	143.597	-6.56076	11.9445	-0.0294727	0.00177322	0.0686728	0.000896497	1	11	0.126881	0.00088359	4.07477e-06	7.67863e-05	0.00691831	0.000795675	0.00696391	6.56076	-2.9315e-08
125909	143.445	15.2877	144.257	-6.08336	12.5415	-0.0294559	0.00183631	0.0826837	0.0009286	1	11	0.129004	0.000894259	5.48201e-06	-3.40745e-06	0.00689302	0.000734626	0.00693205	6.08336	1.40724e-06
112205	144.143	14.2674	144.847	-5.65277	13.1375	-0.0294428	0.00176391	0.0994179	0.000964566	1	11	0.129636	0.000894985	6.33728e-06	-0.000725151	0.00687025	0.000680023	0.00690383	5.65277	8.55269e-07
100004	144.789	13.3473	145.403	-5.26689	13.7325	-0.0294237	0.00178532	0.119237	0.00100473	1	11	0.12976	0.000892417	7.5131e-06	-0.000644957	0.0068484	0.000631316	0.00687744	5.26689	1.17581e-06
89129.3	145.346	12.4957	145.882	-4.91377	14.3275	-0.0294169	0.00192118	0.142902	0.00104847	1	11	0.129538	0.000887962	7.33527e-06	-0.000965732	0.00682966	0.000587162	0.00685485	4.91377	-1.77825e-07
79433.3	145.859	11.739	146.33	-4.60137	14.9235	-0.0294033	0.00183426	0.170681	0.00109845	1	11	0.129581	0.000885537	8.76435e-06	-0.000885539	0.00681183	0.000548231	0.00683386	4.60137	1.42908e-06
70795	146.312	11.061	146.729	-4.32329	15.5185	-0.0293989	0.00189717	0.203246	0.001155	1	11	0.12945	0.00088224	8.11608e-06	-0.000404376	0.00679589	0.000513764	0.00681528	4.32329	-6.48277e-07
63093.8	146.729	10.4652	147.102	-4.07961	16.1135	-0.0293981	0.00180672	0.241038	0.00121996	1	11	0.129515	0.000880446	8.7694e-06	-0.000163795	0.00678079	0.000483628	0.00679802	4.07961	6.53322e-07
56237	147.113	9.95439	147.45	-3.87101	16.5735	-0.0294076	0.00197702	0.284304	0.00129576	1	11	0.140717	0.000954339	8.80352e-06	-0.000163795	0.00676651	0.000457855	0.00678198	3.87101	3.41277e-08
50122.5	147.466	9.51568	147.773	-3.69206	17.1685	-0.0293829	0.00199842	0.333694	0.00138369	1	11	0.130297	0.000881739	8.34802e-06	-0.000163795	0.00675311	0.000435765	0.00676716	3.69206	-4.55502e-07
44666.7	147.788	9.13495	148.07	-3.53702	17.6275	-0.0293892	0.00210469	0.390059	0.00148459	1	11	0.1399	0.00094482	8.52627e-06	0.000237174	0.00674069	0.00041665	0.00675355	3.53702	1.78247e-07
39814.1	148.121	8.84603	148.385	-3.41775	18.2225	-0.0293874	0.00188582	0.451892	0.00160603	1	11	0.130235	0.000877684	9.22655e-06	-0.000243989	0.00672726	0.000401764	0.00673925	3.41775	7.00282e-07
35481	148.356	8.60906	148.605	-3.32114	18.6815	-0.0293879	0.00207808	0.521037	0.00174869	1	11	0.137983	0.00092852	8.86715e-06	-0.000324182	0.00671793	0.000389841	0.00672923	3.32114	-3.59405e-07
31621.1	148.724	8.45209	148.964	-3.25266	19.2775	-0.0293704	0.00188172	0.595496	0.00191709	1	11	0.129674	0.000870504	1.03129e-05	-0.000564764	0.00670221	0.000380891	0.00671303	3.25266	1.44572e-06
28188.1	148.955	8.34345	149.188	-3.20597	19.7375	-0.029383	0.00201461	0.676719	0.00211656	1	11	0.135583	0.000908804	1.10198e-05	-0.00112612	0.00669244	0.000374865	0.00670293	3.20597	7.06897e-07
25116.9	149.323	8.30922	149.554	-3.185	20.3335	-0.0293694	0.00186962	0.762594	0.00235407	1	11	0.129304	0.000864599	1.12967e-05	-0.00048457	0.00667623	0.000371505	0.00668656	3.185	2.76981e-07
22389	149.582	8.32875	149.813	-3.18695	20.7935	-0.0293749	0.00191951	0.853503	0.00263793	1	11	0.133604	0.000891799	1.09775e-05	-0.000163795	0.00666464	0.000371089	0.00667497	3.18695	-3.19262e-07
19948.8	149.84	8.4071	150.076	-3.21133	21.2525	-0.0293854	0.00186218	0.948981	0.00297802	1	11	0.137366	0.00091531	1.04368e-05	-0.00048457	0.00665283	0.000373271	0.00666329	3.21133	-5.40689e-07
17786.9	150.211	8.5469	150.454	-3.25658	21.7125	-0.0293841	0.00205463	1.04691	0.00337848	1	11	0.140574	0.000934332	1.06276e-05	-0.000885539	0.00663581	0.000377573	0.00664654	3.25658	1.90829e-07
15847.7	150.581	8.73502	150.834	-3.31994	22.3095	-0.0293643	0.00188451	1.14972	0.00385585	1	11	0.129583	0.000859109	1.17402e-05	-0.000163795	0.00661868	0.000383943	0.00662981	3.31994	1.11254e-06
14121.9	150.903	8.9892	151.171	-3.40905	22.7685	-0.0293628	0.0019061	1.25374	0.00443317	1	11	0.131632	0.000870752	1.25908e-05	-0.000564764	0.00660334	0.000393357	0.00661504	3.40905	8.50606e-07
12590.9	151.213	9.28737	151.498	-3.51464	23.2285	-0.0293733	0.00189233	1.36104	0.00511495	1	11	0.133272	0.000879695	1.24819e-05	-0.000564764	0.00658833	0.00040465	0.00660075	3.51464	-1.08909e-07
11217.7	151.573	9.65	151.88	-3.64286	23.6885	-0.029375	0.00189736	1.47024	0.00593532	1	11	0.13464	0.000886493	1.19335e-05	-0.000163795	0.00657086	0.000418339	0.00658416	3.64286	-5.48364e-07
10002.2	151.939	10.0842	152.273	-3.79716	24.1485	-0.0293713	0.0018955	1.57791	0.00692021	1	11	0.135747	0.000891473	1.17674e-05	-0.000644957	0.00655274	0.000434907	0.00656716	3.79716	-1.66108e-07
8914.93	152.328	10.5746	152.695	-3.9711	24.6309	-0.0293194	0.00230067	1.68826	0.0080969	1	11	0.136636	0.000894835	1.26431e-05	-0.000564764	0.0065333	0.000453541	0.00654902	3.9711	8.7575e-07
7944	152.763	11.1282	153.168	-4.16639	25.157	-0.0292982	0.0024183	1.80035	0.00950314	1	11	0.137358	0.000896777	1.22652e-05	-0.000243989	0.00651151	0.000474336	0.00652877	4.16639	-3.7795e-07
7082.23	153.196	11.7562	153.646	-4.38824	25.7339	-0.0292785	0.00245924	1.91155	0.011191	1	11	0.137929	0.000897704	1.28388e-05	-0.000404376	0.00648937	0.00049799	0.00650845	4.38824	5.73645e-07
6307.73	153.672	12.4529	154.175	-4.63287	26.3686	-0.0292691	0.00230812	2.02618	0.0132186	1	11	0.138394	0.000897642	1.34089e-05	-8.36012e-05	0.00646492	0.000523889	0.00648612	4.63287	5.70032e-07
5621.06	154.145	13.2575	154.714	-4.91569	27.0692	-0.02927	0.00228467	2.13571	0.015682	1	11	0.138744	0.000896776	1.37216e-05	7.67863e-05	0.00643975	0.000553858	0.00646352	4.91569	3.1271e-07
5011.6	154.666	14.1263	155.31	-5.21857	27.8297	-0.0292616	0.00236823	2.2481	0.0185983	1	11	0.139023	0.000895136	1.37617e-05	-0.00048457	0.00641205	0.000585638	0.00643874	5.21857	4.01399e-08
4466.43	155.218	15.1045	155.951	-5.55806	28.5897	-0.0292646	0.00231333	2.35913	0.0221305	1	11	0.139242	0.000892858	1.34488e-05	-0.000324182	0.00638213	0.000621057	0.00641227	5.55806	-3.12908e-07
3981.27	155.792	16.1743	156.629	-5.92721	29.3497	-0.0292676	0.00232803	2.47157	0.0263559	1	11	0.139413	0.000890081	1.36424e-05	-0.00048457	0.00635038	0.000659296	0.00638451	5.92721	1.93569e-07
3546.6	156.418	17.3497	157.377	-6.32933	30.1099	-0.0292677	0.00224372	2.58652	0.0314353	1	11	0.139538	0.00088665	1.3605e-05	-0.000725151	0.00631543	0.000700502	0.00635416	6.32933	-3.73987e-08
3161.01	157.074	18.6343	158.176	-6.76557	30.8697	-0.0292565	0.00240601	2.70198	0.0374995	1	11	0.139632	0.000882764	1.38892e-05	-0.000564764	0.00627805	0.000744787	0.00632208	6.76557	2.84233e-07
2817.3	157.801	20.0661	159.072	-7.24686	31.6299	-0.0292785	0.00225209	2.8153	0.0447984	1	11	0.139712	0.000878292	1.49696e-05	7.67863e-05	0.00623624	0.000793003	0.00628646	7.24686	1.08034e-06
2510.8	158.56	21.6243	160.027	-7.76607	32.3897	-0.0292584	0.00230402	2.93133	0.0535255	1	11	0.139761	0.000873355	1.59781e-05	-0.000243989	0.00619162	0.00084441	0.00624893	7.76607	1.00854e-06
2237.85	159.407	23.3217	161.104	-8.32345	33.15	-0.029278	0.00229025	3.04951	0.0639048	1	11	0.139805	0.000867791	1.61503e-05	-8.36012e-05	0.00614177	0.000898555	0.00620716	8.32345	1.72176e-07
1995.64	160.274	25.1822	162.24	-8.92929	33.9097	-0.0292629	0.0023619	3.16698	0.0762982	1	11	0.139827	0.000861849	1.66939e-05	-0.000324182	0.006089	0.000956701	0.0061637	8.92929	5.43583e-07
1778.29	161.223	27.2275	163.506	-9.58569	34.6699	-0.0292639	0.00221636	3.28708	0.0911497	1	11	0.139842	0.000855273	1.64218e-05	7.67863e-05	0.00603058	0.00101845	0.00611597	9.58569	-2.72057e-07
1585.51	162.254	29.4292	164.902	-10.2804	35.4297	-0.0292533	0.00227834	3.41094	0.108637	1	11	0.139851	0.000848086	1.70885e-05	-0.00048457	0.00596686	0.00108225	0.00606422	10.2804	6.66705e-07
1411.84	163.356	31.8771	166.437	-11.0419	36.1912	-0.0292701	0.00210506	3.53636	0.129722	1	11	0.139856	0.000840295	1.68622e-05	-0.000885539	0.00589704	0.00115074	0.00600827	11.0419	-2.26294e-07
1258.79	164.491	34.4998	168.07	-11.8453	36.951	-0.0292767	0.0021207	3.6648	0.15442	1	11	0.139852	0.000832105	1.73293e-05	-8.36012e-05	0.00582321	0.00122134	0.00594991	11.8453	4.67108e-07
1121.79	165.698	37.3633	169.858	-12.7071	37.7094	-0.0292682	0.00202224	3.79719	0.183729	1	11	0.139851	0.000823337	1.74077e-05	-0.000725151	0.00574307	0.00129501	0.00588726	12.7071	7.83719e-08
1000.32	167.003	40.4846	171.84	-13.6267	38.4687	-0.0292632	0.0021099	3.92999	0.218133	1	11	0.139847	0.000813819	1.71559e-05	-0.000324182	0.00565556	0.00137101	0.00581936	13.6267	-2.51749e-07
891.427	168.394	43.8827	174.018	-14.6062	39.2274	-0.0292654	0.00211269	4.06856	0.258727	1	11	0.13983	0.000803541	1.70137e-05	-0.00048457	0.00556083	0.00144913	0.00574654	14.6062	-1.42254e-07
794.238	169.839	47.6142	176.387	-15.6608	39.987	-0.0292723	0.00208012	4.20856	0.306673	1	11	0.13982	0.000792693	1.7704e-05	0.000477755	0.0054589	0.0015304	0.00566937	15.6608	6.90357e-07
707.509	171.338	51.6686	178.959	-16.7812	40.7494	-0.0292714	0.00212851	4.35373	0.362919	1	11	0.139808	0.00078123	1.78688e-05	0.000397561	0.00534992	0.00161332	0.00558788	16.7812	1.64793e-07
631.01	172.878	56.1136	181.756	-17.9827	41.5074	-0.0292733	0.00217765	4.49486	0.428423	1	11	0.139798	0.00076915	1.80325e-05	-0.000725151	0.0052331	0.00169859	0.00550187	17.9827	1.63687e-07
562.339	174.463	61.0025	184.821	-19.2726	42.2639	-0.029266	0.00219607	4.63953	0.505438	1	11	0.139785	0.000756327	1.89901e-05	-0.000243989	0.00510743	0.00178586	0.00541065	19.2726	9.57613e-07
501.444	176.062	66.3647	188.155	-20.6534	43.0212	-0.0292752	0.00227256	4.78256	0.594984	1	11	0.139768	0.000742834	1.88533e-05	-0.000564764	0.00497321	0.0018746	0.00531478	20.6534	-1.3681e-07
446.859	177.686	72.3341	191.845	-22.1507	43.7779	-0.0292684	0.00246743	4.92387	0.699989	1	11	0.139761	0.000728507	2.01192e-05	-0.00048457	0.00482783	0.00196536	0.00521254	22.1507	1.26591e-06
398.089	179.372	78.9726	195.987	-23.7626	44.5407	-0.0292711	0.00248008	5.06248	0.821977	1	11	0.139748	0.000713047	2.07375e-05	-0.000404376	0.0046698	0.00205599	0.00510237	23.7626	6.18243e-07
354.66	181.052	86.3415	200.586	-25.4959	45.3009	-0.0292756	0.00241029	5.19743	0.963	1	11	0.139729	0.000696602	2.15243e-05	-0.000644957	0.00449989	0.00214594	0.00498539	25.4959	7.86771e-07
316.316	182.711	94.4644	205.686	-27.3397	46.0579	-0.029265	0.00239019	5.32637	1.12346	1	11	0.139717	0.000679272	2.16955e-05	-0.000564764	0.00431871	0.00223284	0.00486178	27.3397	1.7125e-07
281.894	184.397	103.59	211.502	-29.3264	46.8134	-0.0292686	0.00246501	5.45022	1.30744	1	11	0.139703	0.000660525	2.22658e-05	7.67863e-05	0.00412215	0.00231574	0.00472808	29.3264	5.70299e-07
251.044	186.035	113.791	218.076	-31.4527	47.5699	-0.0292652	0.00252903	5.57136	1.51691	1	11	0.139695	0.000640578	2.20904e-05	-0.00048457	0.0039118	0.00239272	0.00458555	31.4527	-1.75434e-07
223.925	187.721	125.053	225.56	-33.6702	48.3327	-0.0292699	0.00241177	5.68359	1.74698	1	11	0.139685	0.000619281	2.19854e-05	-3.40745e-06	0.00368967	0.00245793	0.00443341	33.6702	-1.04979e-07
199.553	189.52	137.833	234.341	-36.0274	49.0942	-0.0292749	0.0024449	5.78639	2.00179	1	11	0.139674	0.000596028	2.22048e-05	-8.36012e-05	0.0034511	0.0025099	0.00426728	36.0274	2.19458e-07
177.781	191.349	152.133	244.456	-38.4866	49.8623	-0.0292675	0.00251004	5.88453	2.27906	1	11	0.139659	0.000571307	2.29345e-05	-0.000725151	0.00320202	0.00254578	0.00409072	38.4866	7.29691e-07
158.428	193.15	168.037	256.015	-41.0226	50.6287	-0.0292697	0.00249645	5.97836	2.57551	1	11	0.139649	0.000545473	2.33273e-05	-0.000644957	0.0029469	0.00256375	0.00390603	41.0226	3.92768e-07
141.311	194.957	185.65	269.211	-43.5992	51.3819	-0.0292789	0.00227851	6.06663	2.88505	1	11	0.13964	0.000518701	2.41547e-05	-0.000324182	0.00269002	0.0025616	0.00371456	43.5992	8.274e-07
125.846	197.255	206.089	285.275	-46.2547	52.3874	-0.0292774	0.000285256	6.13659	3.20264	1	12	0.140324	0.000491891	2.32768e-05	-0.00048457	0.00242381	0.00253236	0.00350539	46.2547	-8.7788e-07
112.19	199.364	228.481	303.232	-48.8933	53.1329	-0.0292755	0.000286785	6.20891	3.52506	1	12	0.140231	0.000462453	2.38839e-05	0.00015698	0.00216818	0.00248485	0.0032978	48.8933	6.07116e-07
100.032	201.536	253.428	323.794	-51.507	53.8927	-0.0292732	0.000297421	6.27807	3.84591	1	12	0.140139	0.000432802	2.40392e-05	-0.00048457	0.00192227	0.00241723	0.00308838	51.507	1.55226e-07
89.116	203.878	281.592	347.65	-54.0947	54.6598	-0.0292815	0.000277581	6.34226	4.16103	1	12	0.140053	0.000402857	2.38567e-05	-0.000163795	0.00168689	0.0023299	0.00287646	54.0947	-1.82484e-07
79.4155	206.367	313.087	374.981	-56.6097	55.4242	-0.0292775	0.0002977	6.40103	4.46233	1	12	0.139978	0.000373294	2.41988e-05	7.67863e-05	0.00146765	0.00222662	0.0026668	56.6097	3.4214e-07
70.8387	209.034	347.969	405.928	-59.0057	56.1754	-0.0292826	0.000285144	6.45668	4.74452	1	12	0.139913	0.000344675	2.40872e-05	-0.000243989	0.00126858	0.00211175	0.00246349	59.0057	-1.11583e-07
63.0823	211.912	387.652	441.793	-61.3365	56.9558	-0.0292849	0.000281399	6.50835	5.01092	1	12	0.139851	0.000316553	2.42115e-05	-0.000324182	0.00108572	0.00198612	0.0022635	61.3365	1.2425e-07
56.2418	215.037	431.577	482.182	-63.5148	57.7003	-0.0292797	0.00025638	6.55696	5.25287	1	12	0.139805	0.000289943	2.40489e-05	0.000317367	0.000924892	0.00185625	0.0020739	63.5148	-1.62596e-07
50.1444	218.494	480.631	527.964	-65.5535	58.4572	-0.029282	0.000289891	6.60368	5.47269	1	12	0.139764	0.000264724	2.39376e-05	-0.000243989	0.000783847	0.00172426	0.00189407	65.5535	-1.1124e-07
44.6712	222.283	535.989	580.253	-67.4754	59.2212	-0.0292851	0.00029097	6.64717	5.6717	1	12	0.139726	0.000240802	2.40578e-05	-0.000243989	0.000660194	0.00159192	0.00172339	67.4754	1.20177e-07
39.8089	226.429	597.743	639.193	-69.253	59.9837	-0.0292853	0.000258576	6.68844	5.84912	1	12	0.139694	0.000218548	2.41729e-05	-0.000243989	0.000554203	0.00146302	0.00156447	69.253	1.15093e-07
35.4653	231.013	666.897	705.775	-70.8939	60.7341	-0.0292797	0.000300433	6.72911	6.00817	1	12	0.139665	0.000197888	2.42379e-05	-0.000644957	0.000463772	0.00133883	0.00141688	70.8939	6.49381e-08
31.6296	235.973	743.357	779.912	-72.3884	61.4584	-0.0292814	0.000288864	6.76908	6.14941	1	12	0.139649	0.000179058	2.4117e-05	-0.00048457	0.000387945	0.0012221	0.0012822	72.3884	-1.20848e-07
28.1701	241.929	830.246	864.776	-73.7542	62.2638	-0.0292738	0.000264126	6.80496	6.27237	1	12	0.139628	0.000161461	2.3921e-05	-0.000725151	0.000323504	0.0011102	0.00115637	73.7542	-1.96032e-07
25.1044	248.34	926.819	959.514	-75	63.0199	-0.0292768	0.000295253	6.84029	6.38208	1	12	0.139611	0.000145502	2.39907e-05	0.000237174	0.000269739	0.00100668	0.00104219	75	6.97274e-08
22.3854	255.388	1033.63	1064.72	-76.1214	63.7064	-0.0292774	0.000275097	6.87843	6.48268	1	12	0.139599	0.000131114	2.43582e-05	-0.000564764	0.000225285	0.000911799	0.000939218	76.1214	3.67458e-07
19.9553	263.497	1153.53	1183.24	-77.1329	64.4682	-0.0292788	0.000285975	6.91405	6.57117	1	12	0.13959	0.000117973	2.45295e-05	-0.000644957	0.000188203	0.000823912	0.000845135	77.1329	1.71376e-07
17.7961	272.501	1286.99	1315.53	-78.045	65.3125	-0.0292899	0.00021964	6.94894	6.65077	1	12	0.139583	0.000106105	2.4615e-05	0.000557949	0.00015746	0.000743665	0.000760152	78.045	8.54995e-08
15.8576	282.642	1437.1	1464.63	-78.8734	66.0349	-0.0292898	0.000296351	6.98387	6.72378	1	12	0.139577	9.52985e-05	2.41833e-05	-0.00048457	0.000131759	0.000669932	0.000682765	78.8734	-4.31777e-07
14.119	294.677	1606.67	1633.47	-79.607	66.8373	-0.0292769	0.00026567	7.01601	6.78768	1	12	0.139572	8.54449e-05	2.4616e-05	-0.000163795	0.00011044	0.00060215	0.000612194	79.607	4.3278e-07
12.6008	307.712	1792.05	1818.28	-80.2568	67.7279	-0.0292852	0.000243158	7.0481	6.84624	1	12	0.139567	7.6758e-05	2.47449e-05	-0.000564764	9.30732e-05	0.000542039	0.000549972	80.2568	1.28899e-07
11.2249	322.925	2002.85	2028.71	-80.8409	68.4119	-0.0292823	0.000271575	7.07931	6.89994	1	12	0.139563	6.87936e-05	2.45947e-05	-0.000564764	7.8462e-05	0.000486638	0.000492923	80.8409	-1.50275e-07
10.0032	339.484	2234.87	2260.5	-81.3626	69.1727	-0.0292785	0.000304657	7.11917	6.9586	1	12	0.139562	6.17395e-05	2.44061e-05	0.00015698	6.64367e-05	0.000437362	0.000442379	81.3626	-1.88573e-07
8.91838	358.587	2494.19	2519.84	-81.8187	70.017	-0.0292869	0.000229456	7.15492	7.01002	1	12	0.139562	5.53855e-05	2.48935e-05	-0.000324182	5.64742e-05	0.000392812	0.000396851	81.8187	4.8741e-07
7.93953	380.576	2789.12	2814.97	-82.23	71.2577	-0.0292817	2.27385e-05	7.18716	7.05579	1	13	0.139622	4.95997e-05	2.50441e-05	-0.000965732	4.80279e-05	0.000351982	0.000355244	82.23	1.50563e-07
7.07654	405.309	3113.68	3139.94	-82.5835	71.816	-0.0292948	2.01022e-05	7.22314	7.10278	1	13	0.139603	4.44604e-05	2.49851e-05	0.000638142	4.11095e-05	0.000315813	0.000318477	82.5835	-5.89667e-08
6.31058	432.055	3478.96	3505.69	-82.9206	72.4362	-0.0292765	-4.12749e-05	7.24938	7.13927	1	13	0.139597	3.98202e-05	2.47907e-05	0.000397561	3.51555e-05	0.000283076	0.000285251	82.9206	-1.94363e-07
5.6205	458.092	3897.34	3924.17	-83.2962	73.1226	-0.0292929	0.000120913	7.26568	7.16667	1	13	0.139584	3.55702e-05	2.46854e-05	-0.000324182	2.97479e-05	0.000253089	0.000254831	83.2962	-1.0536e-07
5.01444	513.961	4347.83	4378.1	-83.2583	73.8802	-0.0293014	0.000171616	7.30004	7.19944	1	13	0.13957	3.18791e-05	2.48978e-05	-0.000404376	2.68138e-05	0.00022683	0.00022841	83.2583	2.12446e-07
4.46939	539.017	4834.51	4864.46	-83.6382	74.7215	-0.0292773	3.51942e-05	7.36579	7.27535	1	13	0.139573	2.86924e-05	2.52669e-05	-0.000324182	2.27789e-05	0.000204307	0.000205573	83.6382	3.69057e-07
3.97785	600.494	5421.03	5454.19	-83.6791	75.6582	-0.0292695	-7.28503e-05	7.38057	7.2911	1	13	0.139565	2.55887e-05	2.50814e-05	7.67863e-05	2.01859e-05	0.000182231	0.000183345	83.6791	-1.85453e-07
3.55114	638.741	6020.92	6054.71	-83.9443	76.6994	-0.0292759	3.31658e-05	7.44371	7.36087	1	13	0.139569	2.30513e-05	2.47163e-05	-0.000404376	1.74236e-05	0.000164239	0.000165161	83.9443	-3.65171e-07
3.1604	720.122	6731.41	6769.82	-83.8938	77.8612	-0.0292853	7.67852e-05	7.48123	7.39657	1	13	0.13956	2.0615e-05	2.51555e-05	-8.36012e-05	1.57128e-05	0.000146876	0.000147714	83.8938	4.39197e-07
2.81836	776.559	7515.33	7555.35	-84.1006	79.1566	-0.029276	3.80506e-06	7.51407	7.43469	1	13	0.139561	1.84718e-05	2.5158e-05	-0.000324182	1.3604e-05	0.000131656	0.000132357	84.1006	2.52154e-09
2.51367	847.338	8362.26	8405.08	-84.214	80.6007	-0.0292749	4.04809e-05	7.5716	7.49464	1	13	0.139557	1.66039e-05	2.47523e-05	-0.000243989	1.19942e-05	0.00011837	0.000118976	84.214	-4.05664e-07
2.23982	952.566	9325.76	9374.29	-84.1678	82.2154	-0.0292745	3.78795e-05	7.61943	7.54075	1	13	0.139559	1.48875e-05	2.53104e-05	7.67863e-05	1.08397e-05	0.000106123	0.000106675	84.1678	5.5812e-07
1.99706	1061.5	10407.2	10461.2	-84.1761	84.0197	-0.0292674	5.97522e-06	7.65766	7.57881	1	13	0.139558	1.33406e-05	2.49436e-05	0.00015698	9.69973e-06	9.50982e-05	9.55916e-05	84.1761	-3.66878e-07
1.77961	1170.35	11604.4	11663.2	-84.241	86.038	-0.0292669	3.60729e-05	7.70677	7.62917	1	13	0.139555	1.19653e-05	2.50236e-05	-0.000243989	8.60352e-06	8.53067e-05	8.57394e-05	84.241	8.00573e-08
1.58469	1300.14	12945.4	13010.5	-84.2648	88.2971	-0.0292674	1.95463e-05	7.75823	7.68075	1	13	0.139555	1.07263e-05	2.52885e-05	-0.000163795	7.68075e-06	7.64763e-05	7.6861e-05	84.2648	2.6485e-07
1.41224	1452.29	14418.7	14491.6	-84.2484	90.8261	-0.0292699	3.07802e-05	7.81605	7.73755	1	13	0.139555	9.63002e-06	2.48359e-05	-0.000805345	6.91545e-06	6.8658e-05	6.90054e-05	84.2484	-4.52572e-07
1.25967	1633.66	16064.5	16147.3	-84.1933	93.6549	-0.0292699	2.35808e-05	7.86494	7.78444	1	13	0.139556	8.64269e-06	2.54383e-05	-0.000243989	6.26556e-06	6.1612e-05	6.19298e-05	84.1933	6.0238e-07
1.12249	1841.41	17912.4	18006.8	-84.1306	96.8231	-0.0292707	2.14518e-05	7.91562	7.83284	1	13	0.139553	7.75e-06	2.48688e-05	-0.000564764	5.67904e-06	5.52434e-05	5.55345e-05	84.1306	-5.6948e-07
1.00006	2077.54	19975	20082.7	-84.0622	100.372	-0.029266	2.87444e-05	7.96721	7.88195	1	13	0.139555	6.94901e-06	2.54205e-05	-0.000404376	5.15114e-06	4.95269e-05	4.9794e-05	84.0622	5.51703e-07