File: data/DE_65_11_60.mpt
EC-Lab ASCII FILE
Nb header lines : 60

Potentio Electrochemical Impedance Spectroscopy

Run on channel : 3 (SN 20921)
User :
CE vs. WE compliance from -10 V to 10 V
Electrode connection : standard
Ewe ctrl range : min = -10.00 V, max = 10.00 V
Acquisition started on : 02/20/2020 14:48:52
Technique started on : 02/20/2020 14:48:53
Saved on :
	File : DE_65_11_60.mpr
	Directory : P:\Chemistry\Data\VMP3\Kyler\DOE\DE_65\60C\
	Host : 10.0.4.64
Device : VMP3 (SN 1432)
Address : USB
EC-Lab for windows v11.33 (software)
Internet server v11.32 (firmware)
Command interpretor v11.33 (firmware)
Electrode material :
Initial state :
Electrolyte :
Comments :
Electrode surface area : 0.001 cm²
Characteristic mass : 0.001 g
Equivalent Weight : 0.000 g/eq.
Density : 0.000 g/cm3
Record Analogic IN 1
Cycle Definition : Charge/Discharge alternance
Mode                Single sine
E (V)               0.0000
vs.                 Eoc
tE (h:m:s)          0:00:0.0000
record              0
dI                  1.000
unit dI             mA
dt (s)              0.000
fi                  1.000
unit fi             MHz
ff                  1.000
unit ff             Hz
Nd                  20
Points              per decade
spacing             Logarithmic
Va (mV)             128.0
pw                  0.50
Na                  3
corr                0
E range min (V)     -10.000
E range max (V)     10.000
I Range             Auto
Bandwidth           5
nc cycles           0
goto Ns'            0
nr cycles           0
inc. cycle          1

freq/Hz	Re(Z)/Ohm	-Im(Z)/Ohm	|Z|/Ohm	Phase(Z)/deg	time/s	<Ewe>/V	<I>/mA	Cs/µF	Cp/µF	cycle number	I Range	|Ewe|/V	|I|/A	(Q-Qo)/mA.h	Analog IN 1/V	Re(Y)/Ohm-1	Im(Y)/Ohm-1	|Y|/Ohm-1	Phase(Y)/deg	dq/mA.h
1.00002e+06	101.054	49.8048	112.661	-26.2365	1.94948	-0.00270529	-0.00506085	0.00319552	0.000624509	1	11	0.00373791	3.31785e-05	-1.47607e-06	-0.000237822	0.00796175	0.00392398	0.00887621	26.2365	-1.47607e-06
891247	104.613	47.3454	114.828	-24.3505	2.54449	-0.00227046	-0.00408381	0.00377176	0.000641221	1	11	0.00534977	4.65896e-05	-2.19433e-06	-0.000317989	0.00793398	0.00359075	0.00870871	24.3505	-7.18268e-07
794333	108.868	45.4201	117.963	-22.6461	3.14049	-0.00192603	-0.00337554	0.00441133	0.000654	1	11	0.00754685	6.39767e-05	-2.69707e-06	-0.000157655	0.00782367	0.00326407	0.00847726	22.6461	-5.0274e-07
707950	113.419	44.132	121.703	-21.2613	3.73549	-0.00162182	-0.00281991	0.00509407	0.000669841	1	11	0.0103883	8.53578e-05	-3.1605e-06	-0.000157655	0.0076575	0.00297957	0.00821676	21.2613	-4.63427e-07
630957	117.712	42.9188	125.292	-20.0323	4.3315	-0.00135483	-0.00227603	0.00587723	0.000689639	1	11	0.0139008	0.000110948	-3.62136e-06	-0.000237822	0.00749848	0.00273402	0.00798136	20.0323	-4.60858e-07
562342	121.794	41.95	128.816	-19.0055	4.92747	-0.00115059	-0.00192283	0.00674664	0.000715507	1	11	0.0180828	0.000140377	-3.92942e-06	-0.000718822	0.00733985	0.0025281	0.00776303	19.0055	-3.08063e-07
501206	125.647	40.8613	132.124	-18.0149	5.52448	-0.000985438	-0.00159665	0.00777125	0.000743278	1	11	0.0229647	0.000173811	-4.04949e-06	-0.000398155	0.00719759	0.00234071	0.00756863	18.0149	-1.20069e-07
446686	129.209	39.8768	135.222	-17.1515	6.11948	-0.000863638	-0.00144176	0.00893506	0.000777039	1	11	0.0285598	0.000211207	-4.182e-06	0.000243179	0.00706636	0.00218085	0.00739524	17.1515	-1.32509e-07
398103	132.529	38.741	138.075	-16.2948	6.7155	-0.000807835	-0.00122611	0.0103194	0.000812391	1	11	0.0349236	0.000252932	-4.36457e-06	-0.000478322	0.00695152	0.00203208	0.00724244	16.2948	-1.82569e-07
354810	135.595	37.6285	140.719	-15.5097	7.31148	-0.000801386	-0.0013262	0.0119208	0.000852382	1	11	0.0420979	0.000299162	-4.86356e-06	-0.000237822	0.00684757	0.00190025	0.00710635	15.5097	-4.98993e-07
316230	138.432	36.4601	143.153	-14.7554	7.90749	-0.00080051	-0.00124251	0.0138038	0.000895439	1	11	0.0501943	0.000350635	-5.77742e-06	-0.000398155	0.00675518	0.00177918	0.00698555	14.7554	-9.1386e-07
281835	141.106	35.3058	145.455	-14.0475	8.50248	-0.000815327	-0.0013234	0.0159948	0.000942352	1	11	0.0592966	0.000407662	-5.65883e-06	2.67859e-06	0.00666936	0.00166873	0.00687496	14.0475	1.18591e-07
251188	143.57	34.1893	147.585	-13.3947	9.09847	-0.00080543	-0.0013193	0.0185324	0.00099455	1	11	0.0694571	0.000470624	-5.30303e-06	-0.000237822	0.00659143	0.00156966	0.00677575	13.3947	3.55804e-07
223872	145.866	33.0803	149.57	-12.7777	9.69348	-0.000794097	-0.00126748	0.0214907	0.00105124	1	11	0.0806972	0.000539527	-5.3014e-06	0.000323346	0.00652025	0.0014787	0.00668582	12.7777	1.62861e-09
199544	147.997	32.0697	151.432	-12.2265	10.2905	-0.000803957	-0.00124865	0.0248707	0.00111543	1	11	0.0929857	0.000614043	-5.73937e-06	-0.000237822	0.00645385	0.0013985	0.00660363	12.2265	-4.37976e-07
177832	150.026	31.0982	153.216	-11.7107	10.8865	-0.000779168	-0.00125144	0.028779	0.0011856	1	11	0.106327	0.000693966	-5.65032e-06	-0.000157655	0.00639089	0.00132473	0.00652675	11.7107	8.90502e-08
158486	151.948	30.2134	154.923	-11.246	11.3455	-0.000763829	-0.00119627	0.0332376	0.00126415	1	11	0.12067	0.000778902	-6.40339e-06	8.28454e-05	0.00633089	0.00125884	0.00645483	11.246	-7.53064e-07
141256	153.775	29.3992	156.56	-10.8234	11.8045	-0.000760249	-0.00117856	0.0383246	0.00135141	1	11	0.136069	0.000869115	-6.88299e-06	-0.000558489	0.0062737	0.00119943	0.00638733	10.8234	-4.79602e-07
125909	155.542	28.6783	158.163	-10.4467	12.4015	-0.000679565	-0.00100969	0.0440768	0.00144912	1	11	0.129976	0.000821783	-7.63212e-06	-0.000558489	0.00621777	0.00114641	0.00632258	10.4467	-7.49132e-07
112205	157.227	28.0517	159.71	-10.116	12.9975	-0.000655689	-0.00097596	0.0505649	0.00155992	1	11	0.12981	0.000812786	-7.33951e-06	-7.74882e-05	0.006164	0.00109975	0.00626134	10.116	2.92612e-07
100004	158.863	27.5073	161.226	-9.82347	13.5935	-0.000612971	-0.000880715	0.0578569	0.00168415	1	11	0.129698	0.000804449	-7.58124e-06	-0.000237822	0.00611152	0.00105822	0.00620246	9.82347	-2.41732e-07
89129.3	160.455	27.0438	162.718	-9.56699	14.1885	-0.000584361	-0.000826103	0.0660286	0.00182389	1	11	0.129616	0.000796571	-5.78046e-06	-7.74882e-05	0.00606014	0.0010214	0.00614561	9.56699	1.80078e-06
79433.3	161.975	26.6873	164.159	-9.3561	14.7845	-0.000562983	-0.000780998	0.075078	0.00198424	1	11	0.129469	0.000788681	-5.2323e-06	-0.000317989	0.00601062	0.000990321	0.00609166	9.3561	5.48159e-07
70795	163.482	26.4139	165.603	-9.17799	15.3795	-0.000538717	-0.000801129	0.0851108	0.00216529	1	11	0.129485	0.0007819	-5.00582e-06	-0.000237822	0.00596125	0.000963161	0.00603855	9.17799	2.26482e-07
63093.8	164.96	26.2289	167.032	-9.03451	15.9755	-0.00051691	-0.000716136	0.096173	0.00237145	1	11	0.129307	0.000774147	-5.25527e-06	-7.74882e-05	0.00591261	0.000940116	0.00598688	9.03451	-2.49454e-07
56237	166.416	26.1436	168.457	-8.92807	16.4355	-0.000523097	-0.000798519	0.108251	0.00260726	1	11	0.140461	0.000833809	-4.63923e-06	-0.000317989	0.0058643	0.000921269	0.00593622	8.92807	6.1604e-07
50122.5	167.894	26.1685	169.921	-8.85901	17.0305	-0.00049829	-0.000711104	0.121341	0.00287786	1	11	0.13041	0.000767471	-3.32396e-06	-0.000478322	0.00581487	0.000906322	0.00588508	8.85901	1.31528e-06
44666.7	169.333	26.2595	171.357	-8.81499	17.4905	-0.000502446	-0.000719117	0.135691	0.00318654	1	11	0.139886	0.000816341	-3.9484e-06	-0.000478322	0.00576684	0.000894299	0.00583577	8.81499	-6.24439e-07
39814.1	170.81	26.4899	172.852	-8.81541	18.0855	-0.000480398	-0.000702529	0.150905	0.00354416	1	11	0.130092	0.000752622	-4.27266e-06	-0.000317989	0.00571695	0.000886605	0.00578529	8.81541	-3.24266e-07
35481	172.301	26.7943	174.372	-8.83919	18.5445	-0.000483361	-0.000665065	0.16741	0.00395288	1	11	0.137621	0.000789238	-4.3703e-06	-0.000478322	0.00566675	0.000881229	0.00573486	8.83919	-9.76372e-08
31621.1	173.832	27.2054	175.948	-8.8949	19.1405	-0.000473464	-0.000683893	0.185006	0.00442315	1	11	0.129636	0.000736788	-2.80997e-06	8.28454e-05	0.00561516	0.000878798	0.00568351	8.8949	1.56033e-06
28188.1	175.382	27.7083	177.558	-8.97783	19.6005	-0.000475011	-0.000672708	0.203772	0.00496233	1	11	0.135244	0.000761692	-2.19741e-06	-0.000478322	0.00556298	0.000878883	0.00563197	8.97783	6.1256e-07
25116.9	176.995	28.2986	179.243	-9.08375	20.0605	-0.000470407	-0.000634126	0.223918	0.00558127	1	11	0.140218	0.000782279	-2.73279e-06	-0.000317989	0.00550905	0.000880804	0.00557901	9.08375	-5.35377e-07
22389	178.678	29.0074	181.017	-9.2212	20.6565	-0.000464667	-0.000633755	0.245062	0.00629293	1	11	0.129652	0.000716242	-2.29987e-06	-0.000718822	0.00545294	0.000885254	0.00552433	9.2212	4.32917e-07
19948.8	180.432	29.789	182.874	-9.37487	21.1165	-0.000455683	-0.00059573	0.267823	0.00710647	1	11	0.132937	0.000726931	-1.94629e-06	-0.000398155	0.0053952	0.000890738	0.00546823	9.37487	3.53576e-07
17786.9	182.218	30.6321	184.775	-9.5426	21.5755	-0.000461368	-0.000612133	0.292107	0.00802808	1	11	0.135651	0.000734141	-1.29258e-06	-0.000237822	0.0053371	0.000897205	0.00541199	9.5426	6.53712e-07
15847.7	184.139	31.5797	186.827	-9.73154	22.0355	-0.000461442	-0.000602069	0.318014	0.00908623	1	11	0.1379	0.000738115	-7.78213e-07	-0.000237822	0.00527553	0.000904752	0.00535255	9.73154	5.1437e-07
14121.9	186.13	32.5965	188.963	-9.93332	22.4945	-0.000449383	-0.000565909	0.345746	0.0102883	1	11	0.139713	0.000739369	-4.63609e-07	8.28454e-05	0.00521271	0.000912887	0.00529204	9.93332	3.14604e-07
12590.9	188.241	33.6924	191.232	-10.1477	23.0915	-0.000444911	-0.000595732	0.375172	0.0116459	1	11	0.129381	0.000676564	-8.79435e-07	-0.000157655	0.00514744	0.000921317	0.00522924	10.1477	-4.15827e-07
11217.7	190.45	34.8462	193.612	-10.3686	23.5515	-0.000445693	-0.000586786	0.407155	0.0131889	1	11	0.130424	0.000673636	-1.04865e-06	-0.000558489	0.00508063	0.00092959	0.00516497	10.3686	-1.69219e-07
10002.2	192.77	36.0522	196.112	-10.5932	24.0115	-0.000446681	-0.000594428	0.441358	0.0149158	1	11	0.131228	0.000669148	-4.25206e-07	-0.000398155	0.00501222	0.000937398	0.00509913	10.5932	6.23449e-07
8914.93	195.18	37.2764	198.708	-10.8124	24.4939	-0.000429795	-0.000506081	0.478926	0.0168542	1	11	0.131849	0.000663534	-6.78949e-07	-0.000157655	0.00494318	0.000944072	0.00503252	10.8124	-2.53744e-07
7944	197.719	38.5557	201.443	-11.0343	25.02	-0.000430205	-0.000493035	0.519628	0.0190355	1	11	0.132314	0.000656832	-4.98153e-07	0.000243179	0.0048724	0.000950128	0.00496417	11.0343	1.80797e-07
7082.23	200.337	39.8717	204.266	-11.2561	25.5969	-0.000416618	-0.000498254	0.563618	0.0214745	1	11	0.132662	0.000649457	1.63153e-08	0.000323346	0.00480141	0.000955591	0.00489558	11.2561	5.14468e-07
6307.73	203.1	41.2089	207.238	-11.4696	26.2306	-0.000411902	-0.000547089	0.612288	0.0242101	1	11	0.13292	0.000641387	-5.23802e-07	-7.74882e-05	0.004729	0.000959512	0.00482536	11.4696	-5.40117e-07
5621.06	205.949	42.5821	210.305	-11.6819	26.9313	-0.000406125	-0.000611206	0.664929	0.0272601	1	11	0.133104	0.00063291	-1.07323e-06	8.28454e-05	0.0046565	0.000962777	0.00475499	11.6819	-5.49432e-07
5011.6	208.867	43.9714	213.445	-11.8885	27.6917	-0.000414009	-0.000639726	0.722226	0.0306508	1	11	0.133224	0.00062416	-1.59035e-06	2.67859e-06	0.00458456	0.000965159	0.00468505	11.8885	-5.17115e-07
4466.43	211.879	45.3609	216.68	-12.084	28.4517	-0.000403217	-0.000569457	0.785557	0.0344275	1	11	0.133307	0.000615226	-1.94882e-06	-7.74882e-05	0.00451284	0.000966151	0.00461511	12.084	-3.58467e-07
3981.27	214.994	46.8293	220.035	-12.2881	29.2117	-0.000415537	-0.00068595	0.853651	0.0386663	1	11	0.133356	0.000606067	-1.55737e-06	8.28454e-05	0.00444061	0.00096724	0.00454473	12.2881	3.91446e-07
3546.6	218.185	48.3278	223.473	-12.4893	29.9719	-0.000400049	-0.000573745	0.928563	0.0434266	1	11	0.133382	0.00059686	-1.64907e-06	-0.000398155	0.00436892	0.000967715	0.00447482	12.4893	-9.16996e-08
3161.01	221.485	49.869	227.03	-12.689	30.7317	-0.000420588	-0.000742053	1.00963	0.0487144	1	11	0.133397	0.000587572	-1.43421e-06	-7.74882e-05	0.00429712	0.000967528	0.0044047	12.689	2.14858e-07
2817.3	224.856	51.4741	230.672	-12.894	31.4919	-0.000404857	-0.000620901	1.09749	0.0546494	1	11	0.133394	0.000578283	-1.10425e-06	-7.74882e-05	0.00422584	0.000967382	0.00433515	12.894	3.29964e-07
2510.8	228.329	53.1365	234.431	-13.1006	32.2517	-0.000394848	-0.000550446	1.19293	0.0612874	1	11	0.133384	0.00056897	-1.37003e-06	-0.000237822	0.00415463	0.00096686	0.00426565	13.1006	-2.65779e-07
2237.85	231.887	54.9045	238.299	-13.3207	33.0119	-0.000401279	-0.000607854	1.29533	0.0687629	1	11	0.133372	0.000559683	-1.99611e-06	2.67859e-06	0.00408352	0.000966863	0.00419642	13.3207	-6.2608e-07
1995.64	235.575	56.7463	242.313	-13.5436	33.7717	-0.000391997	-0.00063283	1.4054	0.0770764	1	11	0.133352	0.000550328	-1.66713e-06	-0.000237822	0.00401213	0.000966459	0.00412689	13.5436	3.28978e-07
1778.29	239.533	58.7432	246.631	-13.7793	34.5319	-0.000401111	-0.000605431	1.52356	0.0864333	1	11	0.13333	0.000540608	-2.12837e-06	-0.000237822	0.00393796	0.000965748	0.00405465	13.7793	-4.61244e-07
1585.51	243.512	60.8029	250.989	-14.0196	35.2917	-0.00039278	-0.000641591	1.65092	0.0968876	1	11	0.13331	0.000531139	-2.60472e-06	-0.000157655	0.00386557	0.000965198	0.00398424	14.0196	-4.76348e-07
1411.84	247.658	62.9748	255.539	-14.2669	36.0532	-0.000405286	-0.000632831	1.79006	0.108714	1	11	0.133285	0.000521584	-3.00598e-06	-0.000237822	0.0037926	0.000964386	0.00391329	14.2669	-4.01258e-07
1258.79	251.986	65.2533	260.298	-14.5182	36.813	-0.000402061	-0.000626866	1.9376	0.121766	1	11	0.133263	0.000511965	-3.57288e-06	0.000243179	0.00371907	0.000963076	0.00384175	14.5182	-5.66906e-07
1121.79	256.555	67.6291	265.319	-14.7675	37.5714	-0.000402378	-0.000628171	2.09784	0.136302	1	11	0.133244	0.000502202	-3.51856e-06	-0.000157655	0.00364454	0.000960717	0.00376904	14.7675	5.43267e-08
1000.32	261.355	70.0957	270.591	-15.0135	38.3307	-0.000401558	-0.000672532	2.26981	0.152316	1	11	0.133222	0.000492335	-4.01803e-06	-0.000558489	0.00356946	0.000957335	0.00369561	15.0135	-4.99476e-07
891.427	266.445	72.5756	276.153	-15.2368	39.0894	-0.000403441	-0.00063749	2.46005	0.169913	1	11	0.133202	0.00048235	-4.4819e-06	-0.000157655	0.00349389	0.000951683	0.00362119	15.2368	-4.63862e-07
794.238	271.902	75.1453	282.095	-15.4492	39.8489	-0.000409461	-0.00065762	2.66666	0.189226	1	11	0.133186	0.000472133	-4.27578e-06	-0.000157655	0.00341682	0.000944304	0.00354491	15.4492	2.06116e-07
707.509	277.624	77.6863	288.288	-15.633	40.6115	-0.000409051	-0.000588657	2.89563	0.21027	1	11	0.133169	0.000461931	-4.85279e-06	-7.74882e-05	0.00334043	0.000934739	0.00346875	15.633	-5.7701e-07
631.01	283.586	80.1784	294.703	-15.7872	41.3694	-0.000402695	-0.000631713	3.14577	0.232848	1	11	0.133154	0.000451824	-5.34803e-06	-7.74882e-05	0.00326525	0.000923184	0.00339325	15.7872	-4.95244e-07
562.339	289.91	82.6107	301.45	-15.9051	42.3759	-0.000405528	-0.000550654	3.42598	0.257293	1	12	0.134142	0.000444989	-5.91257e-06	0.000323346	0.0031903	0.000909087	0.0033173	15.9051	-5.64534e-07
501.444	296.541	84.9218	308.461	-15.9804	43.1332	-0.000409964	-0.000566204	3.73748	0.28328	1	12	0.134015	0.000434463	-5.72567e-06	8.28454e-05	0.00311662	0.000892522	0.0032419	15.9804	1.86898e-07
446.859	303.491	87.0936	315.74	-16.012	43.8899	-0.000407858	-0.000561431	4.08944	0.311154	1	12	0.133897	0.000424075	-6.13897e-06	-0.000157655	0.00304429	0.000873627	0.00316716	16.012	-4.13299e-07
398.089	310.756	89.0636	323.267	-15.9924	44.6527	-0.0004051	-0.000551848	4.4889	0.340735	1	12	0.133789	0.000413865	-6.45569e-06	-7.74882e-05	0.00297369	0.000852268	0.00309341	15.9924	-3.16722e-07
354.66	318.248	90.8136	330.952	-15.9263	45.4129	-0.000405826	-0.000587347	4.94149	0.372074	1	12	0.133697	0.000403976	-6.55293e-06	0.000323346	0.00290561	0.000829128	0.00302159	15.9263	-9.72404e-08
316.316	325.917	92.3357	338.745	-15.818	46.1699	-0.000409684	-0.000558262	5.44916	0.404877	1	12	0.133607	0.000394417	-6.75318e-06	2.67859e-06	0.00284029	0.000804682	0.00295207	15.818	-2.00249e-07
281.894	333.808	93.5438	346.667	-15.6546	46.9254	-0.000408846	-0.000569076	6.03558	0.439465	1	12	0.133531	0.000385185	-6.63193e-06	-0.000317989	0.00277761	0.000778377	0.00288461	15.6546	1.21253e-07
251.044	341.906	94.4734	354.718	-15.4462	47.6819	-0.000410095	-0.000560686	6.71058	0.476007	1	12	0.133465	0.000376256	-6.39011e-06	0.000243179	0.00271732	0.000750833	0.00281914	15.4462	2.41814e-07
223.925	350.043	95.0485	362.718	-15.1914	48.4447	-0.000406796	-0.000564732	7.47777	0.51348	1	12	0.133404	0.000367789	-6.23362e-06	-0.000398155	0.00266062	0.000722447	0.00275696	15.1914	1.56495e-07
199.553	358.354	95.3358	370.818	-14.8978	49.2062	-0.000407634	-0.000559251	8.36577	0.552962	1	12	0.133348	0.000359606	-6.60909e-06	-0.000478322	0.00260609	0.00069332	0.00269674	14.8978	-3.75476e-07
177.781	366.712	95.2749	378.887	-14.5639	49.9742	-0.000407317	-0.00051128	9.39627	0.594146	1	12	0.1333	0.000351821	-7.0737e-06	0.000403512	0.0025545	0.000663681	0.00263931	14.5639	-4.64601e-07
158.428	375.05	94.8253	386.852	-14.189	50.7407	-0.000406926	-0.000570083	10.5941	0.636534	1	12	0.133262	0.000344478	-6.93767e-06	8.28454e-05	0.00250611	0.000633629	0.00258497	14.189	1.36029e-07
141.311	383.325	94.0168	394.686	-13.7807	51.4939	-0.000414363	-0.000543758	11.9795	0.679743	1	12	0.133228	0.000337555	-7.35893e-06	-0.000237822	0.00246073	0.000603534	0.00253366	13.7807	-4.21265e-07
125.846	391.589	92.8009	402.435	-13.3323	52.2494	-0.000413263	-0.000573235	13.6279	0.724675	1	12	0.133195	0.000330972	-7.2016e-06	-0.000398155	0.00241791	0.000573009	0.00248488	13.3323	1.57337e-07
112.19	399.704	91.2625	409.991	-12.8616	52.9948	-0.0004133	-0.000560147	15.5444	0.770213	1	12	0.133171	0.000324815	-7.03815e-06	0.000323346	0.00237789	0.000542931	0.00243908	12.8616	1.63449e-07
100.032	407.578	89.3336	417.254	-12.3627	53.7547	-0.000424073	-0.000594228	17.8101	0.816386	1	12	0.133146	0.000319101	-7.27729e-06	-0.000237822	0.00234105	0.000513114	0.00239662	12.3627	-2.39146e-07
89.116	415.284	87.0583	424.311	-11.8398	54.5217	-0.000411884	-0.000575342	20.5142	0.863588	1	12	0.133129	0.000313753	-7.68832e-06	2.67859e-06	0.00230662	0.000483551	0.00235676	11.8398	-4.11029e-07
79.4155	422.688	84.4817	431.048	-11.3027	55.2862	-0.000412182	-0.000559811	23.722	0.911228	1	12	0.133111	0.000308807	-7.43263e-06	-0.000398155	0.00227494	0.000454687	0.00231993	11.3027	2.55686e-07
70.8387	429.682	81.6219	437.366	-10.7557	56.0374	-0.000414884	-0.000576834	27.526	0.958663	1	12	0.133101	0.000304325	-7.70053e-06	8.28454e-05	0.00224625	0.000426694	0.00228641	10.7557	-2.67898e-07
63.0823	436.443	78.498	443.446	-10.1961	56.8178	-0.000410076	-0.000567474	32.1406	1.00714	1	12	0.133088	0.000300122	-7.9382e-06	-0.000157655	0.00221945	0.000399187	0.00225507	10.1961	-2.37668e-07
56.2418	442.683	75.2021	449.026	-9.64124	57.5613	-0.000415872	-0.000580507	37.6297	1.05548	1	12	0.133078	0.00029637	-8.08132e-06	-0.000317989	0.00219559	0.000372982	0.00222704	9.64124	-1.43118e-07
50.1444	448.627	71.7271	454.324	-9.08366	58.3182	-0.000413971	-0.000574783	44.2501	1.10293	1	12	0.133066	0.000292889	-8.17538e-06	-0.000317989	0.00217347	0.000347497	0.00220107	9.08366	-9.40559e-08
44.6712	454.06	68.1563	459.147	-8.5366	59.0822	-0.000405621	-0.0005487	52.2741	1.15185	1	12	0.133061	0.000289801	-8.41796e-06	0.000163012	0.00215382	0.000323298	0.00217795	8.5366	-2.4258e-07
39.8089	459.12	64.4903	463.627	-7.99575	59.8447	-0.000413021	-0.000568929	61.9933	1.19949	1	12	0.133057	0.000286992	-8.13287e-06	-0.000317989	0.00213594	0.000300025	0.00215691	7.99575	2.85086e-07
35.4653	463.776	60.8045	467.745	-7.4693	60.5951	-0.000410206	-0.000553585	73.8042	1.24719	1	12	0.133049	0.000284448	-8.88865e-06	-0.000478322	0.00211977	0.000277918	0.00213792	7.4693	-7.55782e-07
31.6296	468.008	57.1964	471.49	-6.96771	61.3195	-0.000409312	-0.000558041	87.9749	1.29465	1	12	0.133044	0.000282177	-9.09657e-06	-0.000157655	0.00210527	0.000257291	0.00212094	6.96771	-2.07921e-07
28.1701	471.846	53.5759	474.878	-6.47792	62.1247	-0.000405715	-0.000549912	105.454	1.34226	1	12	0.133037	0.000280151	-8.49104e-06	-7.74882e-05	0.00209236	0.000237578	0.0021058	6.47792	6.05537e-07
25.1044	475.333	50.097	477.966	-6.01639	62.8809	-0.000410281	-0.000571688	126.549	1.39023	1	12	0.133042	0.000278351	-8.41108e-06	0.000323346	0.00208068	0.000219289	0.0020922	6.01639	7.99522e-08
22.3854	478.461	46.625	480.727	-5.56578	63.5674	-0.000414009	-0.000585466	152.488	1.43442	1	12	0.133039	0.000276745	-9.28186e-06	-0.000478322	0.00207038	0.000201754	0.00208018	5.56578	-8.7078e-07
19.9553	481.294	43.3975	483.247	-5.15233	64.3292	-0.000417475	-0.000560633	183.78	1.48214	1	12	0.133036	0.000275296	-9.07661e-06	-7.74882e-05	0.00206097	0.000185834	0.00206934	5.15233	2.05249e-07
17.7961	483.774	40.2455	485.446	-4.75552	65.1735	-0.000409526	-0.000588422	222.217	1.52732	1	12	0.133031	0.000274039	-9.33525e-06	-0.000237822	0.00205287	0.00017078	0.00205996	4.75552	-2.58633e-07
15.8576	486.018	37.2128	487.44	-4.37841	65.8959	-0.000420047	-0.000597361	269.706	1.57193	1	12	0.133032	0.000272919	-9.32012e-06	0.000163012	0.00204555	0.000156621	0.00205153	4.37841	1.51294e-08
14.119	488.029	34.3499	489.236	-4.02613	66.6982	-0.000409983	-0.00057538	328.164	1.61773	1	12	0.133031	0.000271915	-1.03023e-05	-7.74882e-05	0.00203896	0.000143512	0.002044	4.02613	-9.82219e-07
12.6008	489.755	31.6982	490.78	-3.70316	67.5888	-0.000409349	-0.000587722	398.463	1.6622	1	12	0.133032	0.000271062	-9.62078e-06	0.000243179	0.00203332	0.000131602	0.00203757	3.70316	6.81553e-07
11.2249	491.355	29.1106	492.216	-3.39056	68.2729	-0.000417177	-0.000581495	487.066	1.70364	1	12	0.133032	0.000270271	-1.09136e-05	8.28454e-05	0.00202807	0.000120154	0.00203163	3.39056	-1.29285e-06
10.0032	492.704	26.7527	493.43	-3.10798	69.0327	-0.000414922	-0.000593577	594.72	1.74823	1	12	0.133034	0.00026961	-8.74271e-06	0.000163012	0.00202365	0.00010988	0.00202663	3.10798	2.17092e-06
8.91838	493.874	24.5317	494.482	-2.84366	69.877	-0.000408706	-0.000574243	727.457	1.79044	1	12	0.133028	0.000269024	-1.12493e-05	-0.000317989	0.00201983	0.000100329	0.00202232	2.84366	-2.50656e-06
7.93953	494.931	22.4742	495.441	-2.59994	70.8157	-0.000410393	-0.000576471	891.952	1.83537	1	12	0.133028	0.000268505	-8.72465e-06	0.000243179	0.00201633	9.15587e-05	0.0020184	2.59994	2.52463e-06
7.07654	495.849	20.5495	496.275	-2.37316	71.374	-0.000425881	-0.000624843	1094.45	1.87654	1	12	0.133025	0.000268047	-8.75108e-06	-0.000237822	0.00201329	8.34368e-05	0.00201501	2.37316	-2.64308e-08
6.31058	496.662	18.7854	497.017	-2.16609	71.9942	-0.000424278	-0.000615782	1342.55	1.91791	1	12	0.133029	0.000267655	-9.21111e-06	-0.000237822	0.00201057	7.60464e-05	0.002012	2.16609	-4.60035e-07
5.6205	497.377	17.1402	497.672	-1.97371	72.6806	-0.000420029	-0.000626502	1652.07	1.95964	1	12	0.133032	0.000267309	-1.09724e-05	-0.000638656	0.00200816	6.9204e-05	0.00200936	1.97371	-1.76126e-06
5.01444	497.906	15.6205	498.151	-1.79691	73.4382	-0.000405006	-0.000580359	2031.9	1.99788	1	12	0.133025	0.000267038	-1.37331e-05	-0.000157655	0.00200644	6.29466e-05	0.00200742	1.79691	-2.76072e-06
4.46939	498.455	14.2868	498.66	-1.64177	74.2795	-0.000412462	-0.000596849	2492.5	2.04597	1	12	0.133026	0.000266767	-1.30848e-05	-0.000157655	0.00200455	5.74549e-05	0.00200537	1.64177	6.48325e-07
3.97785	498.934	12.9629	499.102	-1.48828	75.2162	-0.000420877	-0.000600606	3086.52	2.08207	1	12	0.133026	0.000266531	-8.75271e-06	-0.000478322	0.00200292	5.20383e-05	0.0020036	1.48828	4.33206e-06
3.55114	499.326	11.8601	499.467	-1.36065	76.2574	-0.0004144	-0.000568697	3778.88	2.13073	1	12	0.13303	0.000266344	-1.12792e-05	-0.000157655	0.00200157	4.75418e-05	0.00200213	1.36065	-2.52645e-06
3.1604	499.635	10.7506	499.751	-1.23264	77.4193	-0.00040016	-0.000562302	4684.31	2.16772	1	12	0.133027	0.000266187	-1.58776e-05	-7.74882e-05	0.00200053	4.30452e-05	0.002001	1.23264	-4.59847e-06
2.81836	499.927	9.80012	500.023	-1.12303	78.7146	-0.000403711	-0.000558582	5762.25	2.21348	1	12	0.133027	0.000266042	-8.73414e-06	-0.000237822	0.00199952	3.91969e-05	0.00199991	1.12303	7.14349e-06
2.51367	500.107	8.94035	500.187	-1.02416	80.1587	-0.000404046	-0.000552976	7082.01	2.26257	1	12	0.133028	0.000265957	-1.27609e-05	-0.000157655	0.00199893	3.57347e-05	0.00199925	1.02416	-4.02671e-06
2.23982	500.243	8.13189	500.309	-0.931311	81.7734	-0.000409009	-0.000557753	8738.06	2.30845	1	12	0.133027	0.000265889	-1.62372e-05	8.28454e-05	0.0019985	3.24873e-05	0.00199876	0.931311	-3.47631e-06
1.99706	500.36	7.37596	500.414	-0.844553	83.5777	-0.000404601	-0.000543798	10804.6	2.3474	1	12	0.133029	0.000265837	-6.83589e-06	-0.000157655	0.00199813	2.9455e-05	0.00199834	0.844553	9.40127e-06
1.77961	500.451	6.70801	500.496	-0.767943	85.5959	-0.000401178	-0.000550417	13332.2	2.3949	1	12	0.133029	0.000265795	-1.97714e-05	-7.74882e-05	0.00199784	2.67789e-05	0.00199802	0.767943	-1.29355e-05
1.58469	500.463	6.10003	500.5	-0.698331	87.8551	-0.000400362	-0.000537735	16464.4	2.44569	1	12	0.133027	0.000265789	-8.77742e-06	0.000163012	0.00199785	2.43514e-05	0.001998	0.698331	1.09939e-05
1.41224	500.417	5.55404	500.448	-0.63589	90.3841	-0.000398809	-0.000532651	20291	2.49922	1	12	0.133029	0.000265821	-1.5651e-05	-0.000398155	0.00199809	2.21764e-05	0.00199821	0.63589	-6.87354e-06
1.25967	500.403	5.03067	500.428	-0.575989	93.212	-0.000400231	-0.000539703	25115.2	2.53807	1	12	0.133031	0.000265833	-1.64866e-05	-7.74882e-05	0.00199819	2.00882e-05	0.00199829	0.575989	-8.35633e-07
1.12249	500.353	4.59606	500.374	-0.526283	96.38	-0.000395275	-0.000511199	30849.9	2.60277	1	12	0.133031	0.000265863	-8.83608e-06	-0.000237822	0.00199842	1.83568e-05	0.00199851	0.526283	7.65051e-06
1.00006	500.257	4.1524	500.275	-0.475575	99.9292	-0.000395669	-0.000519185	38325.9	2.64043	1	12	0.133029	0.000265912	-2.51431e-05	-7.74882e-05	0.00199883	1.65914e-05	0.0019989	0.475575	-1.63071e-05