File: data/DE_65_6_60.mpt
EC-Lab ASCII FILE
Nb header lines : 60

Potentio Electrochemical Impedance Spectroscopy

Run on channel : 2 (SN 20919)
User :
CE vs. WE compliance from -10 V to 10 V
Electrode connection : standard
Ewe ctrl range : min = -10.00 V, max = 10.00 V
Acquisition started on : 02/20/2020 14:50:33
Technique started on : 02/20/2020 14:50:34
Saved on :
	File : DE_65_6_60.mpr
	Directory : P:\Chemistry\Data\VMP3\Kyler\DOE\DE_65\60C\
	Host : 10.0.4.64
Device : VMP3 (SN 1432)
Address : USB
EC-Lab for windows v11.33 (software)
Internet server v11.32 (firmware)
Command interpretor v11.33 (firmware)
Electrode material :
Initial state :
Electrolyte :
Comments :
Electrode surface area : 0.001 cm²
Characteristic mass : 0.001 g
Equivalent Weight : 0.000 g/eq.
Density : 0.000 g/cm3
Record Analogic IN 1
Cycle Definition : Charge/Discharge alternance
Mode                Single sine
E (V)               0.0000
vs.                 Eoc
tE (h:m:s)          0:00:0.0000
record              0
dI                  1.000
unit dI             mA
dt (s)              0.000
fi                  1.000
unit fi             MHz
ff                  1.000
unit ff             Hz
Nd                  20
Points              per decade
spacing             Logarithmic
Va (mV)             128.0
pw                  0.50
Na                  3
corr                0
E range min (V)     -10.000
E range max (V)     10.000
I Range             Auto
Bandwidth           5
nc cycles           0
goto Ns'            0
nr cycles           0
inc. cycle          1

freq/Hz	Re(Z)/Ohm	-Im(Z)/Ohm	|Z|/Ohm	Phase(Z)/deg	time/s	<Ewe>/V	<I>/mA	Cs/µF	Cp/µF	cycle number	I Range	|Ewe|/V	|I|/A	(Q-Qo)/mA.h	Analog IN 1/V	Re(Y)/Ohm-1	Im(Y)/Ohm-1	|Y|/Ohm-1	Phase(Y)/deg	dq/mA.h
1.00002e+06	98.7273	42.6767	107.556	-23.3773	1.84749	0.0813411	-0.00086485	0.00372925	0.000587125	1	11	0.0018582	1.72765e-05	-1.22333e-07	-0.000537302	0.00853424	0.00368908	0.00929745	23.3773	-1.22333e-07
891247	101.606	39.8213	109.131	-21.4012	2.44247	0.0817829	-0.000828982	0.00448443	0.000597097	1	11	0.00304904	2.79394e-05	-2.33424e-07	-5.62167e-05	0.00853151	0.00334367	0.00916334	21.4012	-1.11091e-07
794333	105.467	37.641	111.982	-19.6415	3.03747	0.0821373	-0.000848309	0.005323	0.000601421	1	11	0.00479895	4.28545e-05	-4.77743e-07	-0.000216578	0.00841037	0.00300166	0.00892997	19.6415	-2.4432e-07
707950	109.603	36.002	115.365	-18.1841	3.63348	0.0824294	-0.000862433	0.00624441	0.000608132	1	11	0.0071988	6.24004e-05	-6.9632e-07	-0.000136398	0.00823526	0.00270508	0.00866816	18.1841	-2.18577e-07
630957	113.558	34.6721	118.733	-16.9787	4.22849	0.0826963	-0.000816528	0.00727512	0.000620375	1	11	0.0103068	8.68058e-05	-7.92971e-07	2.39641e-05	0.00805513	0.00245943	0.00842222	16.9787	-9.66504e-08
562342	117.226	33.338	121.874	-15.8753	4.82448	0.0828899	-0.000910752	0.00848944	0.000635239	1	11	0.0141611	0.000116194	-1.04263e-06	0.000264507	0.00789224	0.00224449	0.00820519	15.8753	-2.49662e-07
501206	120.585	32.0191	124.763	-14.8707	5.42149	0.0830431	-0.000810765	0.00991733	0.000653191	1	11	0.0187846	0.000150562	-1.09998e-06	0.000104145	0.00774674	0.00205701	0.00801519	14.8707	-5.73502e-08
446686	123.57	30.6499	127.314	-13.9303	6.01748	0.0831568	-0.000974867	0.0116249	0.000673741	1	11	0.0241744	0.00018988	-1.37006e-06	0.000104145	0.00762358	0.00189093	0.00785459	13.9303	-2.70075e-07
398103	126.232	29.3436	129.598	-13.0864	6.61349	0.0832371	-0.000835481	0.0136242	0.000698462	1	11	0.0303343	0.000234065	-1.17345e-06	-0.000296759	0.00751579	0.0017471	0.00771618	13.0864	1.96606e-07
354810	128.702	27.8987	131.691	-12.2308	7.20947	0.0832489	-0.000823028	0.0160783	0.000721597	1	11	0.0373887	0.000283912	-1.76418e-06	-0.000777844	0.00742116	0.00160868	0.00759352	12.2308	-5.90724e-07
316230	130.875	26.4977	133.53	-11.4457	7.80549	0.0832509	-0.000802768	0.0189936	0.00074794	1	11	0.045341	0.000339556	-2.22217e-06	0.000344687	0.00734001	0.00148611	0.00748894	11.4457	-4.57999e-07
281835	132.824	25.0939	135.173	-10.6986	8.40049	0.0832375	-0.000855174	0.0225039	0.000775551	1	11	0.0542447	0.000401297	-2.76058e-06	0.000104145	0.00726931	0.00137336	0.0073979	10.6986	-5.38409e-07
251188	134.581	23.7151	136.655	-9.99372	8.99648	0.0832264	-0.000834731	0.0267176	0.000804633	1	11	0.0642319	0.000470032	-2.89447e-06	0.000104145	0.00720669	0.00126992	0.00731772	9.99372	-1.33887e-07
223872	136.117	22.3504	137.94	-9.32474	9.59249	0.083216	-0.000940291	0.0318079	0.000835076	1	11	0.0752354	0.00054542	-3.71321e-06	-0.000136398	0.00715373	0.00117464	0.00724952	9.32474	-8.18741e-07
199544	137.527	21.0678	139.131	-8.70947	10.1895	0.0832297	-0.000946421	0.0378585	0.000868069	1	11	0.0872468	0.000627084	-4.63707e-06	-0.000216578	0.0071046	0.00108836	0.00718748	8.70947	-9.23857e-07
177832	138.771	19.8503	140.183	-8.14057	10.7855	0.0832405	-0.000906645	0.0450863	0.000904033	1	11	0.10025	0.000715135	-4.50251e-06	-0.000136398	0.00706164	0.00101012	0.00713352	8.14057	1.34562e-07
158486	139.91	18.7257	141.157	-7.62322	11.3805	0.0832449	-0.000941582	0.0536279	0.000943754	1	11	0.114173	0.000808836	-3.1856e-06	-5.62167e-05	0.00702167	0.000939788	0.00708429	7.62322	1.31691e-06
141256	140.931	17.6535	142.032	-7.13986	11.8405	0.0832538	-0.000900694	0.063824	0.000985982	1	11	0.129072	0.000908754	-3.83902e-06	0.000184326	0.00698606	0.000875096	0.00704065	7.13986	-6.53421e-07
125909	141.859	16.6888	142.837	-6.70965	12.4375	0.0832773	-0.000870029	0.0757421	0.00103396	1	11	0.129172	0.000904333	-3.63228e-06	-0.000537302	0.00695303	0.000817981	0.00700098	6.70965	2.06743e-07
112205	142.722	15.8036	143.595	-6.3186	13.0335	0.0832933	-0.00099213	0.0897536	0.00108714	1	11	0.129683	0.000903121	-3.67923e-06	-0.000136398	0.00692174	0.000766441	0.00696404	6.3186	-4.6951e-08
100004	143.508	15.0151	144.292	-5.97305	13.6285	0.0833221	-0.000835275	0.105993	0.00114776	1	11	0.129777	0.000899411	-3.84863e-06	2.39641e-05	0.00689278	0.000721183	0.00693041	5.97305	-1.69402e-07
89129.3	144.236	14.2964	144.943	-5.66053	14.2245	0.0833406	-0.000831558	0.124903	0.00121515	1	11	0.129529	0.000893656	-3.65812e-06	-0.000216578	0.00686561	0.000680502	0.00689925	5.66053	1.90516e-07
79433.3	144.916	13.6564	145.558	-5.38345	14.8195	0.0833615	-0.000788627	0.146718	0.00129146	1	11	0.12952	0.000889814	-3.14371e-06	0.000184326	0.00683981	0.000644559	0.00687011	5.38345	5.14409e-07
70795	145.552	13.0858	146.139	-5.13736	15.4145	0.0833805	-0.000747929	0.171797	0.00137749	1	11	0.129515	0.000886246	-4.93917e-06	-0.000457121	0.00681532	0.000612731	0.00684281	5.13736	-1.79546e-06
63093.8	146.143	12.6057	146.686	-4.92989	16.0105	0.0833857	-0.000780079	0.200109	0.00147783	1	11	0.129322	0.000881624	-4.76009e-06	-5.62167e-05	0.00679207	0.000585855	0.00681729	4.92989	1.79081e-07
56237	146.731	12.1897	147.236	-4.74897	16.4695	0.0833652	-0.000926155	0.232169	0.00159134	1	11	0.140682	0.000955487	-4.35185e-06	-0.000216578	0.0067685	0.000562296	0.00679181	4.74897	4.08237e-07
50122.5	147.288	11.8426	147.763	-4.59694	17.0645	0.0833853	-0.000873003	0.268127	0.00172227	1	11	0.130385	0.000882392	-5.14248e-06	0.000104145	0.00674581	0.000542392	0.00676758	4.59694	-7.90634e-07
44666.7	147.833	11.5641	148.284	-4.47281	17.5245	0.0833736	-0.000876905	0.308123	0.00187395	1	11	0.14017	0.000945282	-5.16813e-06	2.39641e-05	0.00672327	0.000525923	0.00674381	4.47281	-2.56497e-08
39814.1	148.365	11.3606	148.8	-4.37869	18.1205	0.083387	-0.000928757	0.351871	0.00205107	1	11	0.130178	0.000874852	-4.97412e-06	0.000264507	0.00670083	0.000513093	0.00672044	4.37869	1.94011e-07
35481	148.889	11.2188	149.311	-4.30907	18.5805	0.0833967	-0.00087802	0.399834	0.00225727	1	11	0.138123	0.000925064	-5.63569e-06	0.000104145	0.00667848	0.000503221	0.00669741	4.30907	-6.61569e-07
31621.1	149.412	11.1252	149.826	-4.25838	19.1755	0.0834162	-0.000802195	0.452412	0.00249447	1	11	0.12978	0.000866205	-4.99133e-06	-0.000136398	0.006656	0.000495605	0.00667442	4.25838	6.44362e-07
28188.1	149.951	11.1041	150.361	-4.23514	19.6355	0.0834148	-0.000806098	0.508475	0.00277312	1	11	0.135876	0.000903666	-5.93266e-06	0.000184326	0.0066325	0.00049115	0.00665066	4.23514	-9.41328e-07
25116.9	150.494	11.1288	150.905	-4.22925	20.2315	0.0834115	-0.000836205	0.569383	0.00309669	1	11	0.129346	0.000857135	-6.57685e-06	-5.62167e-05	0.00660865	0.000488702	0.0066267	4.22925	-6.44194e-07
22389	151.03	11.2101	151.445	-4.24496	20.6915	0.0834113	-0.000853861	0.634125	0.00347442	1	11	0.133784	0.000883382	-6.1957e-06	0.000184326	0.00658492	0.000488762	0.00660304	4.24496	3.81153e-07
19948.8	151.593	11.334	152.017	-4.27581	21.1515	0.0834064	-0.000769857	0.703916	0.00391296	1	11	0.137653	0.000905512	-5.68727e-06	-5.62167e-05	0.00655992	0.000490458	0.00657823	4.27581	5.08427e-07
17786.9	152.171	11.5277	152.607	-4.33214	21.7465	0.0834105	-0.000804241	0.776208	0.00442905	1	11	0.12931	0.00084734	-6.14658e-06	0.000184326	0.00653404	0.000494984	0.00655277	4.33214	-4.59309e-07
15847.7	152.759	11.7537	153.211	-4.39982	22.2065	0.0834269	-0.00071968	0.854436	0.00502864	1	11	0.131869	0.000860703	-6.89692e-06	0.000104145	0.00650773	0.000500722	0.00652696	4.39982	-7.50342e-07
14121.9	153.376	12.0329	153.847	-4.48587	22.6655	0.0834171	-0.000835648	0.936606	0.00572952	1	11	0.133994	0.000870956	-6.65075e-06	2.39641e-05	0.00648004	0.000508383	0.00649995	4.48587	2.46169e-07
12590.9	154.002	12.3611	154.497	-4.58909	23.1245	0.0834171	-0.000783796	1.02259	0.00654609	1	11	0.135725	0.0008785	-6.70896e-06	-0.000296759	0.00645187	0.000517869	0.00647262	4.58909	-5.82117e-08
11217.7	154.656	12.7296	155.179	-4.70535	23.5845	0.083411	-0.000795505	1.11456	0.00750004	1	11	0.137153	0.000883835	-7.54244e-06	-5.62167e-05	0.00642245	0.000528625	0.00644417	4.70535	-8.33476e-07
10002.2	155.321	13.1486	155.877	-4.83879	24.0445	0.0834201	-0.000819852	1.21016	0.00861073	1	11	0.138283	0.000887133	-7.38912e-06	-0.000296759	0.00639246	0.000541149	0.00641533	4.83879	1.53321e-07
8914.93	156.016	13.6292	156.61	-4.99257	24.5269	0.083434	-0.000715406	1.30988	0.00992055	1	11	0.139199	0.000888826	-7.24974e-06	-5.62167e-05	0.00636108	0.000555691	0.0063853	4.99257	1.39384e-07
7944	156.734	14.1524	157.372	-5.15955	25.053	0.0834461	-0.000741981	1.41564	0.0114487	1	11	0.139921	0.000889113	-8.00355e-06	0.000184326	0.00632864	0.000571447	0.00635438	5.15955	-7.53818e-07
7082.23	157.472	14.7326	158.16	-5.34486	25.6299	0.0834533	-0.000629544	1.52535	0.0132354	1	11	0.140494	0.000888306	-7.5532e-06	0.000104145	0.00629523	0.000588963	0.00632272	5.34486	4.50358e-07
6307.73	158.219	15.3753	158.964	-5.55042	26.4485	0.0834654	-0.000816135	1.64105	0.0153522	1	11	0.129292	0.000813336	-9.1607e-06	2.39641e-05	0.00626122	0.000608449	0.00629072	5.55042	-1.60751e-06
5621.06	159.003	16.0868	159.815	-5.77711	27.1493	0.0834646	-0.000798108	1.76008	0.0178335	1	11	0.129606	0.000810975	-9.8301e-06	-0.000296759	0.00622545	0.000629845	0.00625723	5.77711	-6.69393e-07
5011.6	159.818	16.8468	160.703	-6.01747	27.9097	0.0834659	-0.000774692	1.88507	0.0207163	1	11	0.129859	0.000808068	-1.0375e-05	-5.62167e-05	0.00618837	0.000652331	0.00622265	6.01747	-5.44915e-07
4466.43	160.641	17.6831	161.611	-6.28173	28.6697	0.0834632	-0.000882111	2.01512	0.0241254	1	11	0.130043	0.000804668	-1.10819e-05	0.000104145	0.00615053	0.00067704	0.00618768	6.28173	-7.0688e-07
3981.27	161.5	18.6136	162.569	-6.57461	29.4297	0.0834794	-0.000762983	2.14766	0.0281549	1	11	0.130192	0.000800839	-1.05929e-05	0.000104145	0.00611078	0.000704297	0.00615123	6.57461	4.88947e-07
3546.6	162.394	19.6219	163.575	-6.88962	30.1899	0.0834612	-0.000813719	2.287	0.0329092	1	11	0.130299	0.000796571	-1.06125e-05	-0.000136398	0.00606927	0.000733346	0.00611341	6.88962	-1.95701e-08
3161.01	163.303	20.7386	164.614	-7.23754	30.9497	0.0834644	-0.00088267	2.42781	0.0385336	1	11	0.130377	0.000792013	-1.04022e-05	0.000104145	0.0060264	0.000765323	0.00607481	7.23754	2.10322e-07
2817.3	164.256	21.9388	165.714	-7.60768	31.709	0.0834685	-0.000847172	2.57498	0.0451315	1	11	0.130435	0.000787108	-1.03702e-05	-0.000136398	0.00598136	0.0007989	0.00603448	7.60768	3.19719e-08
2510.8	165.252	23.2718	166.883	-8.01601	32.4687	0.0834792	-0.000702026	2.72381	0.0529679	1	11	0.13048	0.000781862	-9.94676e-06	2.39641e-05	0.00593367	0.000835614	0.00599222	8.01601	4.23458e-07
2237.85	166.262	24.7311	168.092	-8.46056	33.2289	0.0834591	-0.000840109	2.87571	0.06225	1	11	0.130504	0.000776384	-1.02771e-05	0.000104145	0.00588439	0.000875288	0.00594913	8.46056	-3.30341e-07
1995.64	167.32	26.309	169.376	-8.9359	33.9887	0.0834649	-0.00084773	3.03133	0.0731376	1	11	0.130522	0.000770608	-1.02885e-05	2.39641e-05	0.00583238	0.00091707	0.00590403	8.9359	-1.13995e-08
1778.29	168.436	28.0561	170.757	-9.45681	34.7489	0.0834651	-0.0008455	3.19	0.0861166	1	11	0.13053	0.000764419	-1.11437e-05	0.000184326	0.00577669	0.00096221	0.00585627	9.45681	-8.55205e-07
1585.51	169.578	29.9571	172.204	-10.0183	35.5087	0.083494	-0.000706859	3.35082	0.101407	1	11	0.130538	0.000758047	-1.13487e-05	0.000184326	0.00571853	0.00101022	0.00580708	10.0183	-2.0496e-07
1411.84	170.795	32.0601	173.778	-10.6314	36.2702	0.083463	-0.000861112	3.51617	0.119678	1	11	0.130535	0.000751159	-1.21621e-05	0.000344687	0.0056557	0.00106164	0.00575448	10.6314	-8.13428e-07
1258.79	172.022	34.3508	175.419	-11.2927	37.0299	0.0834692	-0.000886574	3.68069	0.141141	1	11	0.130536	0.000744137	-1.23098e-05	0.000344687	0.00559028	0.00111631	0.00570065	11.2927	-1.47719e-07
1121.79	173.318	36.8596	177.194	-12.0062	37.7875	0.083471	-0.000809818	3.84908	0.166556	1	11	0.130528	0.000736643	-1.25493e-05	0.000184326	0.00552009	0.00117396	0.00564354	12.0062	-2.39489e-07
1000.32	174.651	39.5971	179.084	-12.7742	38.5467	0.0834692	-0.000845874	4.01807	0.196441	1	11	0.13052	0.000728822	-1.33257e-05	-5.62167e-05	0.00544577	0.00123467	0.00558398	12.7742	-7.76385e-07
891.427	176.007	42.63	181.096	-13.6152	39.3055	0.0834736	-0.000846246	4.18812	0.232078	1	11	0.13051	0.000720671	-1.40427e-05	-0.000457121	0.00536677	0.00129987	0.00552195	13.6152	-7.16999e-07
794.238	177.444	45.9425	183.295	-14.5159	40.065	0.0834651	-0.000825802	4.3617	0.274021	1	11	0.130506	0.000712001	-1.37354e-05	-0.00037694	0.00528154	0.00136746	0.00545569	14.5159	3.07278e-07
707.509	178.889	49.6349	185.647	-15.5073	40.8275	0.0834699	-0.000844387	4.53211	0.323964	1	11	0.130489	0.000702888	-1.45829e-05	-0.000216578	0.00519046	0.00144015	0.00538655	15.5073	-8.47485e-07
631.01	180.362	53.6577	188.175	-16.5677	41.5854	0.0834738	-0.000823387	4.70059	0.382202	1	11	0.130481	0.000693401	-1.5309e-05	-5.62167e-05	0.00509358	0.00151534	0.00531421	16.5677	-7.26081e-07
562.339	181.883	58.1308	190.946	-17.7242	42.3419	0.0834735	-0.000846247	4.86873	0.451237	1	11	0.130469	0.000683278	-1.55976e-05	0.000104145	0.00498848	0.00159435	0.00523707	17.7242	-2.88642e-07
501.444	183.425	63.0672	193.964	-18.9746	43.0992	0.0834721	-0.00080945	5.03262	0.532056	1	11	0.13046	0.000672598	-1.61495e-05	-5.62167e-05	0.00487545	0.00167633	0.00515559	18.9746	-5.51923e-07
446.859	184.997	68.5858	197.302	-20.3418	43.8559	0.0834672	-0.000862788	5.19296	0.627513	1	11	0.130445	0.000661143	-1.60437e-05	-5.62167e-05	0.0047523	0.00176187	0.00506838	20.3418	1.05836e-07
398.089	186.615	74.7344	201.024	-21.8248	44.6187	0.083471	-0.000840488	5.34957	0.739378	1	11	0.130442	0.00064889	-1.58911e-05	0.000344687	0.00461799	0.00184938	0.00497454	21.8248	1.52595e-07
354.66	188.27	81.6031	205.194	-23.4337	45.379	0.083467	-0.000828593	5.49923	0.869731	1	11	0.13043	0.000635644	-1.6205e-05	-0.000296759	0.00447148	0.0019381	0.00487343	23.4337	-3.13866e-07
316.316	189.94	89.2005	209.843	-25.1559	46.1359	0.0834717	-0.000843279	5.64069	1.01924	1	11	0.13042	0.000621514	-1.61825e-05	-0.000136398	0.00431349	0.00202572	0.00476547	25.1559	2.25269e-08
281.894	191.681	97.7197	215.153	-27.0127	46.8914	0.0834669	-0.000887696	5.77766	1.19185	1	11	0.130412	0.000606136	-1.67718e-05	-5.62167e-05	0.00414081	0.002111	0.00464786	27.0127	-5.89342e-07
251.044	193.467	107.271	221.216	-29.007	47.6479	0.0834701	-0.000868926	5.90998	1.3897	1	11	0.130399	0.000589464	-1.74649e-05	0.000264507	0.00395342	0.00219205	0.00452047	29.007	-6.93066e-07
223.925	195.339	117.819	228.12	-31.0963	48.4107	0.083471	-0.000893643	6.03257	1.60919	1	11	0.130389	0.00057158	-1.80196e-05	-0.000136398	0.00375373	0.00226407	0.00438366	31.0963	-5.54763e-07
199.553	197.272	129.665	236.07	-33.3165	49.1722	0.0834669	-0.000885281	6.15092	1.85567	1	11	0.130382	0.000552301	-1.77913e-05	2.39641e-05	0.00353984	0.0023267	0.00423603	33.3165	2.2836e-07
177.781	199.304	142.93	245.257	-35.646	49.9403	0.0834718	-0.000865395	6.26342	2.12723	1	11	0.130375	0.000531585	-1.74424e-05	-5.62167e-05	0.0033134	0.00237619	0.00407736	35.646	3.48892e-07
158.428	201.436	157.699	255.823	-38.0565	50.7067	0.0834743	-0.000860935	6.37027	2.42068	1	11	0.13036	0.000509573	-1.79975e-05	-0.000136398	0.00307792	0.00240963	0.00390896	38.0565	-5.55137e-07
141.311	203.656	174.055	267.901	-40.5189	51.7089	0.0834612	-0.000110426	6.47079	2.73137	1	12	0.131075	0.000489266	-1.74776e-05	-0.000216578	0.00283759	0.00242514	0.00373272	40.5189	5.19943e-07
125.846	206.031	192.559	282.006	-43.0642	52.4644	0.0834626	-0.000120179	6.56778	3.06215	1	12	0.130983	0.000464468	-1.77942e-05	0.000104145	0.00259068	0.00242128	0.00354602	43.0642	-3.1667e-07
112.19	208.515	213.027	298.092	-45.6133	53.2098	0.0834621	-0.00012072	6.65935	3.40095	1	12	0.130905	0.000439142	-1.82464e-05	-0.000537302	0.00234659	0.00239736	0.00335467	45.6133	-4.52126e-07
100.032	211.16	235.813	316.538	-48.157	53.9697	0.0834658	-0.000102743	6.74703	3.74453	1	12	0.130822	0.000413289	-1.84599e-05	-0.000216578	0.00210746	0.00235351	0.00315917	48.157	-2.13564e-07
89.116	213.935	261.465	337.835	-50.7093	54.7367	0.0834686	-0.000123388	6.83048	4.09138	1	12	0.130751	0.000387027	-1.83966e-05	-0.000296759	0.00187445	0.00229089	0.00296003	50.7093	6.33605e-08
79.4155	216.919	290.035	362.18	-53.2069	55.5012	0.0834655	-0.00011798	6.90978	4.43115	1	12	0.130687	0.000360835	-1.85241e-05	0.000344687	0.00165367	0.00221107	0.00276106	53.2069	-1.27565e-07
70.8387	220.048	321.682	389.744	-55.6257	56.2524	0.0834621	-0.000110203	6.98429	4.75792	1	12	0.130626	0.000335158	-1.84376e-05	-5.62167e-05	0.00144863	0.00211772	0.00256579	55.6257	8.64786e-08
63.0823	223.368	357.529	421.569	-58.0048	57.0328	0.0834716	-0.000129935	7.05669	5.0756	1	12	0.130566	0.000309716	-1.85838e-05	-0.000296759	0.00125685	0.00201175	0.00237209	58.0048	-1.46168e-07
56.2418	227.003	397.192	457.484	-60.2512	57.7764	0.0834694	-7.92099e-05	7.1246	5.37043	1	12	0.130524	0.000285307	-1.83677e-05	-0.000457121	0.00108462	0.00189779	0.00218587	60.2512	2.16073e-07
50.1444	230.857	441.554	498.262	-62.3981	58.5332	0.083457	-0.000116062	7.1881	5.64503	1	12	0.130483	0.000261877	-1.82282e-05	0.000184326	0.000929884	0.00177856	0.00200698	62.3981	1.39567e-07
44.6712	234.995	491.459	544.752	-64.4448	59.2972	0.0834647	-0.000137249	7.24945	5.90041	1	12	0.130447	0.000239461	-1.83272e-05	-0.000136398	0.000791884	0.00165611	0.0018357	64.4448	-9.90512e-08
39.8089	239.525	547.038	597.179	-66.3534	60.0597	0.0834664	-0.000123486	7.3084	6.13265	1	12	0.130413	0.000218382	-1.83787e-05	0.000184326	0.000671648	0.00153394	0.00167454	66.3534	-5.14633e-08
35.4653	244.47	609.38	656.589	-68.1404	60.8101	0.0834663	-0.000126004	7.36425	6.34333	1	12	0.130391	0.000198588	-1.84467e-05	2.39641e-05	0.000567072	0.00141352	0.00152302	68.1404	-6.80085e-08
31.6296	249.846	678.438	722.981	-69.7829	61.5345	0.083459	-0.000127645	7.41681	6.53106	1	12	0.130368	0.00018032	-1.83019e-05	-5.62167e-05	0.000477991	0.00129795	0.00138316	69.7829	1.44814e-07
28.1701	255.879	756.504	798.607	-71.3124	62.3398	0.0834655	-0.00011709	7.46828	6.70158	1	12	0.130353	0.000163225	-1.80318e-05	-0.000216578	0.000401208	0.00118617	0.00125218	71.3124	2.70099e-07
25.1044	262.411	843.442	883.32	-72.7181	63.0959	0.083459	-0.000147601	7.51648	6.85313	1	12	0.130339	0.000147555	-1.80526e-05	2.39641e-05	0.000336315	0.00108098	0.00113209	72.7181	-2.08258e-08
22.3854	269.677	939.847	977.772	-73.9898	63.7824	0.0834598	-0.000133652	7.56482	6.98936	1	12	0.130325	0.000133288	-1.84242e-05	-5.62167e-05	0.000282078	0.000983065	0.00102273	73.9898	-3.71608e-07
19.9553	277.862	1047.83	1084.04	-75.1482	64.5442	0.0834666	-0.000114295	7.61154	7.11146	1	12	0.130315	0.000120212	-1.85449e-05	0.000104145	0.000236449	0.000891655	0.000922473	75.1482	-1.20695e-07
17.7961	286.952	1168.09	1202.82	-76.1981	65.3885	0.0834598	-0.000138819	7.65632	7.22057	1	12	0.130309	0.000108336	-1.86117e-05	2.39641e-05	0.00019834	0.000807377	0.000831383	76.1981	-6.67942e-08
15.8576	297.341	1303.46	1336.94	-77.1497	66.1099	0.0834609	-0.000132627	7.69993	7.31906	1	12	0.130303	9.74635e-05	-1.81504e-05	0.000344687	0.000166353	0.000729243	0.000747976	77.1497	4.61332e-07
14.119	308.857	1455.51	1487.92	-78.0197	66.9123	0.0834665	-0.000128692	7.74464	7.41094	1	12	0.130292	8.75668e-05	-1.85655e-05	0.000184326	0.000139507	0.00065744	0.000672079	78.0197	-4.15075e-07
12.6008	321.785	1622.08	1653.69	-78.7795	67.8029	0.0834646	-0.00013756	7.78662	7.49179	1	12	0.130292	7.87885e-05	-1.8661e-05	0.000264507	0.000117668	0.000593149	0.000604708	78.7795	-9.55228e-08
11.2249	336.422	1810.82	1841.81	-79.4753	68.4869	0.0834687	-0.000138857	7.83004	7.5688	1	12	0.130286	7.07382e-05	-1.84887e-05	2.39641e-05	9.91736e-05	0.000533811	0.000542945	79.4753	1.72297e-07
10.0032	352.546	2020.9	2051.42	-80.1043	69.2477	0.0834622	-0.000119947	7.87293	7.64041	1	12	0.130284	6.35091e-05	-1.82451e-05	-5.62167e-05	8.37735e-05	0.000480215	0.000487467	80.1043	2.43623e-07
8.91838	372.167	2253.9	2284.42	-80.6239	70.092	0.0834619	-0.000135519	7.9177	7.70755	1	12	0.130284	5.70317e-05	-1.87265e-05	0.000665411	7.13156e-05	0.000431899	0.000437747	80.6239	-4.81492e-07
7.93953	393.489	2518.05	2548.61	-81.1184	71.0307	0.0834719	-0.000128787	7.96087	7.7711	1	12	0.130283	5.1119e-05	-1.83378e-05	2.39641e-05	6.05795e-05	0.000387666	0.00039237	81.1184	3.88706e-07
7.07654	418.021	2811.24	2842.15	-81.5423	71.784	0.0834694	-1.69994e-05	8.0002	7.82714	1	13	0.13033	4.58563e-05	-1.87947e-05	-0.000296759	5.17492e-05	0.00034802	0.000351846	81.5423	-4.56882e-07
6.31058	443.411	3140.29	3171.44	-81.9629	72.4042	0.0834618	3.08534e-05	8.03122	7.87423	1	13	0.130327	4.10941e-05	-1.85968e-05	0.000104145	4.40854e-05	0.000312217	0.000315315	81.9629	1.97894e-07
5.6205	473.591	3515.05	3546.81	-82.3266	73.0897	0.0834718	-7.86904e-05	8.05588	7.91225	1	13	0.130312	3.67406e-05	-1.85076e-05	0.000264507	3.76466e-05	0.000279418	0.000281943	82.3266	8.92407e-08
5.01444	519.772	3913.07	3947.44	-82.4337	73.8472	0.0834764	-0.000115817	8.11111	7.97048	1	13	0.130296	3.30078e-05	-1.87506e-05	0.000184326	3.33567e-05	0.000251123	0.000253329	82.4337	-2.42992e-07
4.46939	548.226	4357.68	4392.03	-82.8295	74.6885	0.0834756	-6.61005e-06	8.17177	8.04445	1	13	0.130298	2.96669e-05	-1.91074e-05	0.000424868	2.84203e-05	0.000225904	0.000227685	82.8295	-3.56844e-07
3.97785	605.466	4874.62	4912.08	-82.9197	75.6252	0.0834701	4.12651e-05	8.20787	8.08317	1	13	0.130289	2.65242e-05	-1.8883e-05	-0.000216578	2.50934e-05	0.000202027	0.00020358	82.9197	2.24445e-07
3.55114	646.596	5422.73	5461.14	-83.2003	76.6664	0.0834757	-1.55112e-05	8.26485	8.14899	1	13	0.130289	2.38575e-05	-1.85211e-05	0.000184326	2.16803e-05	0.000181824	0.000183112	83.2003	3.6186e-07
3.1604	723.672	6056.56	6099.64	-83.1863	77.8282	0.0834786	-5.2501e-05	8.31482	8.19778	1	13	0.130287	2.13598e-05	-1.89877e-05	-5.62167e-05	1.94506e-05	0.000162786	0.000163944	83.1863	-4.66595e-07
2.81836	782.758	6764.11	6809.25	-83.399	79.1236	0.0834744	2.87758e-05	8.34858	8.23826	1	13	0.130283	1.91332e-05	-1.8947e-05	-5.62167e-05	1.68822e-05	0.000145885	0.000146859	83.399	4.06683e-08
2.51367	852.953	7520.9	7569.11	-83.5297	80.5677	0.0834782	-1.40662e-05	8.41863	8.31172	1	13	0.130282	1.72123e-05	-1.85438e-05	-5.62167e-05	1.4888e-05	0.000131274	0.000132116	83.5297	4.03228e-07
2.23982	950.463	8380.52	8434.25	-83.5295	82.1824	0.0834789	-1.33938e-05	8.47882	8.37115	1	13	0.130279	1.54464e-05	-1.91164e-05	-5.62167e-05	1.33611e-05	0.000117809	0.000118564	83.5295	-5.72627e-07
1.99706	1057.3	9349.1	9408.69	-83.5478	83.9866	0.0834799	1.01602e-05	8.52431	8.41666	1	13	0.130279	1.38467e-05	-1.86993e-05	0.000104145	1.19437e-05	0.000105611	0.000106285	83.5478	4.17126e-07
1.77961	1167.42	10425.7	10490.9	-83.6109	86.0049	0.0834836	-2.49328e-05	8.57803	8.4718	1	13	0.130275	1.24179e-05	-1.88121e-05	0.000184326	1.06072e-05	9.47286e-05	9.53207e-05	83.6109	-1.12761e-07
1.58469	1293.36	11630.4	11702.1	-83.6545	88.264	0.0834799	1.69298e-06	8.63537	8.52989	1	13	0.130277	1.11327e-05	-1.90349e-05	0.000104145	9.44474e-06	8.4931e-05	8.54545e-05	83.6545	-2.22781e-07
1.41224	1442.62	12945.9	13026	-83.6415	90.7932	0.0834808	-1.41048e-05	8.70523	8.59846	1	13	0.130276	1.00012e-05	-1.85789e-05	-0.000136398	8.50215e-06	7.62972e-05	7.67694e-05	83.6415	4.5595e-07
1.25967	1619.32	14408.3	14499	-83.5875	93.622	0.0834748	-7.14486e-06	8.769	8.65962	1	13	0.130277	8.98525e-06	-1.91785e-05	0.000264507	7.70296e-06	6.85389e-05	6.89704e-05	83.5875	-5.99624e-07
1.12249	1821.23	16050.9	16153.9	-83.5266	96.79	0.0834818	-6.12967e-06	8.83362	8.72134	1	13	0.130275	8.06462e-06	-1.85633e-05	0.000264507	6.97925e-06	6.15098e-05	6.19044e-05	83.5266	6.15279e-07
1.00006	2047.21	17886	18002.8	-83.4704	100.339	0.0834705	-8.85379e-06	8.89774	8.78268	1	13	0.130275	7.23637e-06	-1.91421e-05	-5.62167e-05	6.31662e-06	5.51867e-05	5.5547e-05	83.4704	-5.78816e-07