File: data/DE_65_8_60.mpt
EC-Lab ASCII FILE
Nb header lines : 60

Potentio Electrochemical Impedance Spectroscopy

Run on channel : 4 (SN 4192)
User :
CE vs. WE compliance from -10 V to 10 V
Electrode connection : standard
Ewe ctrl range : min = -10.00 V, max = 10.00 V
Acquisition started on : 02/20/2020 14:50:54
Technique started on : 02/20/2020 14:50:55
Saved on :
	File : DE_65_8_60.mpr
	Directory : P:\Chemistry\Data\VMP3\Kyler\DOE\DE_65\60C\
	Host : 10.0.4.64
Device : VMP3 (SN 1432)
Address : USB
EC-Lab for windows v11.33 (software)
Internet server v11.32 (firmware)
Command interpretor v11.33 (firmware)
Electrode material :
Initial state :
Electrolyte :
Comments :
Electrode surface area : 0.001 cm²
Characteristic mass : 0.001 g
Equivalent Weight : 0.000 g/eq.
Density : 0.000 g/cm3
Record Analogic IN 1
Cycle Definition : Charge/Discharge alternance
Mode                Single sine
E (V)               0.0000
vs.                 Eoc
tE (h:m:s)          0:00:0.0000
record              0
dI                  1.000
unit dI             mA
dt (s)              0.000
fi                  1.000
unit fi             MHz
ff                  1.000
unit ff             Hz
Nd                  20
Points              per decade
spacing             Logarithmic
Va (mV)             128.0
pw                  0.50
Na                  3
corr                0
E range min (V)     -10.000
E range max (V)     10.000
I Range             Auto
Bandwidth           5
nc cycles           0
goto Ns'            0
nr cycles           0
inc. cycle          1

freq/Hz	Re(Z)/Ohm	-Im(Z)/Ohm	|Z|/Ohm	Phase(Z)/deg	time/s	<Ewe>/V	<I>/mA	Cs/µF	Cp/µF	cycle number	I Range	|Ewe|/V	|I|/A	(Q-Qo)/mA.h	Analog IN 1/V	Re(Y)/Ohm-1	Im(Y)/Ohm-1	|Y|/Ohm-1	Phase(Y)/deg	dq/mA.h
1.00002e+06	125.864	134.64	184.309	-46.9294	1.95048	-0.307483	0.000684787	0.00118206	0.000630804	1	11	0.00520415	2.8236e-05	1.60302e-07	-0.000885539	0.00370519	0.00396353	0.00542568	46.9294	1.60302e-07
891247	138.185	138.173	195.415	-44.9975	2.54547	-0.307235	0.000692976	0.00129241	0.000646146	1	11	0.00765953	3.91963e-05	2.46611e-07	-0.000404376	0.00361865	0.00361833	0.00511732	44.9975	8.63094e-08
794333	151.979	142.236	208.155	-43.1033	3.14048	-0.307056	0.00122973	0.00140867	0.000657738	1	11	0.0107207	5.15037e-05	3.92212e-07	-0.000404376	0.00350759	0.00328273	0.00480412	43.1033	1.45601e-07
707950	165.779	146.549	221.267	-41.4767	3.73649	-0.306931	0.00155916	0.00153404	0.000672924	1	11	0.0147477	6.66511e-05	5.71935e-07	-0.000564764	0.00338607	0.00299329	0.00451943	41.4767	1.79723e-07
630957	179.733	149.958	234.076	-39.8396	4.33149	-0.30684	0.00163547	0.00168209	0.000690365	1	11	0.0196503	8.39486e-05	7.99384e-07	-0.000163795	0.00328031	0.00273689	0.00427212	39.8396	2.27449e-07
562342	194.875	152.908	247.704	-38.1194	4.92649	-0.306743	0.00184932	0.00185092	0.000705317	1	11	0.0254016	0.000102548	1.15226e-06	-0.000564764	0.00317607	0.0024921	0.00403708	38.1194	3.52873e-07
501206	210.372	155.35	261.515	-36.4441	5.52248	-0.306632	0.00188282	0.00204406	0.00072131	1	11	0.0319822	0.000122296	1.54925e-06	-0.000404376	0.00307607	0.00227153	0.00382387	36.4441	3.96992e-07
446686	226.26	156.447	275.081	-34.6619	6.11848	-0.306549	0.00200677	0.00227746	0.000736658	1	11	0.0394412	0.00014338	1.96689e-06	7.67863e-05	0.00299012	0.00206751	0.0036353	34.6619	4.1764e-07
398103	244.074	157.548	290.506	-32.8419	6.71349	-0.30649	0.00215418	0.00253753	0.000746324	1	11	0.0477821	0.000164479	2.50841e-06	-0.000885539	0.0028921	0.00186682	0.00344227	32.8419	5.41521e-07
354810	260.083	156.391	303.482	-31.019	7.30947	-0.306488	0.00222825	0.00286822	0.000761675	1	11	0.0570618	0.000188024	2.8763e-06	-0.000324182	0.00282388	0.00169803	0.00329509	31.019	3.67894e-07
316230	275.452	153.819	315.49	-29.18	7.90448	-0.3065	0.00224184	0.00327196	0.000777776	1	11	0.0673367	0.000213435	3.37765e-06	-0.000243989	0.00276742	0.00154539	0.00316967	29.18	5.01342e-07
281835	289.492	149.896	325.998	-27.3747	8.50049	-0.306492	0.00233769	0.00376734	0.000796502	1	11	0.0786152	0.000241152	3.6889e-06	-0.00048457	0.002724	0.00141046	0.0030675	27.3747	3.11248e-07
251188	304.192	145.893	337.368	-25.6227	9.09649	-0.306508	0.00227181	0.00434299	0.000812171	1	11	0.091037	0.000269845	4.25641e-06	-8.36012e-05	0.00267263	0.00128182	0.00296412	25.6227	5.67515e-07
223872	317.077	140.648	346.871	-23.9211	9.69149	-0.306535	0.00224668	0.00505459	0.000831035	1	11	0.104632	0.000301645	4.79113e-06	-3.40745e-06	0.00263529	0.00116896	0.00288291	23.9211	5.34718e-07
199544	328.695	134.807	355.265	-22.2998	10.1515	-0.306469	0.00229228	0.00591659	0.000851901	1	11	0.119341	0.000335921	4.85399e-06	-0.00104593	0.00260428	0.00106809	0.0028148	22.2998	6.28582e-08
177832	340.192	129.096	363.863	-20.7808	10.6105	-0.30651	0.00219252	0.00693263	0.000872666	1	11	0.13521	0.000371597	5.3304e-06	-0.000163795	0.0025695	0.000975074	0.00274829	20.7808	4.76417e-07
158486	349.715	122.76	370.635	-19.3426	11.2065	-0.306478	0.00233583	0.00818034	0.000897415	1	11	0.12981	0.000350236	5.00373e-06	-3.40745e-06	0.00254578	0.000893644	0.00269807	19.3426	-3.26673e-07
141256	358.44	116.562	376.917	-18.0141	11.8025	-0.306467	0.00240544	0.00966622	0.000924441	1	11	0.12989	0.000344613	5.44592e-06	7.67863e-05	0.00252305	0.000820476	0.00265311	18.0141	4.42193e-07
125909	366.396	110.446	382.681	-16.7749	12.3995	-0.306451	0.00229861	0.0114449	0.000953324	1	11	0.129621	0.000338718	5.72796e-06	7.67863e-05	0.00250194	0.000754186	0.00261314	16.7749	2.82039e-07
112205	373.572	104.536	387.922	-15.6331	12.9955	-0.306419	0.00217037	0.0135688	0.000985336	1	11	0.1295	0.000333831	6.26145e-06	-0.000725151	0.00248247	0.000694667	0.00257784	15.6331	5.33489e-07
100004	380.204	98.8664	392.848	-14.5761	13.5915	-0.306429	0.00230884	0.0160974	0.00101954	1	11	0.129535	0.000329734	6.23009e-06	-0.000805345	0.00246359	0.000640619	0.00254551	14.5761	-3.13583e-08
89129.3	386.129	93.6481	397.323	-13.6328	14.1875	-0.306424	0.00228111	0.0190678	0.00105928	1	11	0.129334	0.000325512	7.33306e-06	-0.000404376	0.00244593	0.000593214	0.00251684	13.6328	1.10297e-06
79433.3	391.525	88.6543	401.437	-12.7585	14.7835	-0.306418	0.0023135	0.0226005	0.00110226	1	11	0.129341	0.000322195	8.10251e-06	-8.36012e-05	0.00242955	0.00055013	0.00249105	12.7585	7.69449e-07
70795	396.433	84.1268	405.261	-11.981	15.2425	-0.306428	0.00241177	0.0267229	0.00115155	1	11	0.140134	0.000345788	8.45287e-06	-0.000404376	0.0024138	0.000512231	0.00246755	11.981	3.50359e-07
63093.8	400.725	79.9535	408.624	-11.2836	15.8385	-0.306415	0.00230214	0.0315497	0.00120788	1	11	0.130216	0.000318671	8.53996e-06	-0.000163795	0.00239994	0.000478841	0.00244724	11.2836	8.70949e-08
56237	404.532	76.216	411.649	-10.6698	16.2985	-0.306429	0.00234663	0.0371323	0.00127289	1	11	0.139211	0.000338179	8.58618e-06	-0.000644957	0.00238726	0.000449772	0.00242926	10.6698	4.62202e-08
50122.5	408.252	72.9298	414.714	-10.1284	16.8935	-0.306406	0.00229861	0.0435394	0.00134646	1	11	0.129911	0.000313253	8.53048e-06	-0.000324182	0.00237372	0.00042404	0.0024113	10.1284	-5.57053e-08
44666.7	411.474	70.0214	417.389	-9.65763	17.3535	-0.30642	0.0023001	0.0508868	0.00143214	1	11	0.136994	0.000328216	8.76374e-06	-0.000965732	0.00236189	0.000401929	0.00239585	9.65763	2.33261e-07
39814.1	414.541	67.6322	420.022	-9.26614	17.9495	-0.306392	0.00235184	0.0591058	0.00153247	1	11	0.129534	0.000308399	9.2293e-06	-3.40745e-06	0.00234976	0.000383362	0.00238083	9.26614	4.65566e-07
35481	417.405	65.6908	422.542	-8.9438	18.4095	-0.306411	0.00228055	0.0682841	0.0016504	1	11	0.134806	0.000319036	9.33373e-06	-8.36012e-05	0.00233785	0.000367929	0.00236663	8.9438	1.0443e-07
31621.1	419.777	64.0425	424.634	-8.67434	18.8695	-0.306411	0.00232057	0.0785912	0.00178765	1	11	0.139426	0.000328345	9.35668e-06	-0.000163795	0.00232803	0.000355172	0.00235497	8.67434	2.29481e-08
28188.1	422.435	62.9645	427.102	-8.4776	19.4645	-0.306387	0.0023027	0.0896724	0.00194889	1	11	0.129466	0.000303128	9.39128e-06	0.000317367	0.00231578	0.00034517	0.00234136	8.4776	3.46028e-08
25116.9	424.815	62.4091	429.375	-8.35748	19.9245	-0.306398	0.00227516	0.101533	0.00214501	1	11	0.132598	0.000308816	9.5879e-06	-0.000564764	0.00230424	0.000338513	0.00232897	8.35748	1.96615e-07
22389	427.01	62.2873	431.529	-8.29911	20.3845	-0.306399	0.00221504	0.114126	0.00237774	1	11	0.135223	0.000313358	1.00658e-05	-0.000243989	0.00229307	0.000334487	0.00231734	8.29911	4.77878e-07
19948.8	429.027	62.6	433.57	-8.30153	20.8445	-0.306409	0.00230884	0.127447	0.0026568	1	11	0.137399	0.0003169	1.05121e-05	-0.000965732	0.00228227	0.000333009	0.00230643	8.30153	4.46349e-07
17786.9	430.959	63.3209	435.586	-8.35867	21.3045	-0.306411	0.00230103	0.14131	0.0029862	1	11	0.13919	0.000319548	1.07212e-05	-0.000805345	0.00227137	0.000333733	0.00229576	8.35867	2.09064e-07
15847.7	432.897	64.6056	437.691	-8.48818	21.7635	-0.306408	0.00227497	0.155448	0.0033868	1	11	0.140669	0.000321388	1.08192e-05	-0.000163795	0.00225969	0.000337237	0.00228472	8.48818	9.79877e-08
14121.9	434.994	66.4637	440.042	-8.68716	22.3585	-0.306393	0.00225971	0.169568	0.00386833	1	11	0.129418	0.000294103	1.10979e-05	-0.000644957	0.00224644	0.000343238	0.00227251	8.68716	2.78701e-07
12590.9	438.011	69.1969	443.443	-8.97739	23.1195	-0.306357	0.000184364	0.182673	0.00444809	1	12	0.126693	0.000285703	1.14088e-05	-0.000163795	0.00222746	0.000351894	0.00225508	8.97739	3.10958e-07
11217.7	439.952	72.142	445.828	-9.3123	23.5785	-0.306369	0.000186264	0.196665	0.00514955	1	12	0.13135	0.00029462	1.11811e-05	-0.000805345	0.00221346	0.000362956	0.00224302	9.3123	-2.27744e-07
10002.2	441.994	75.6796	448.426	-9.71615	24.0375	-0.306375	0.000185538	0.210254	0.00598854	1	12	0.13537	0.000301877	1.11413e-05	-0.000243989	0.00219803	0.000376355	0.00223002	9.71615	-3.98332e-08
8914.93	443.876	79.8903	451.008	-10.2031	24.5199	-0.306358	0.000231736	0.223464	0.00701178	1	12	0.138742	0.000307627	1.13294e-05	0.000317367	0.00218219	0.000392759	0.00221726	10.2031	1.88187e-07
7944	445.781	84.8163	453.778	-10.7726	25.2	-0.306318	0.000254164	0.236212	0.00825226	1	12	0.129246	0.000284821	1.10765e-05	-0.000725151	0.00216488	0.0004119	0.00220372	10.7726	-2.52968e-07
7082.23	447.813	90.4988	456.866	-11.4251	25.7769	-0.306313	0.000270314	0.248317	0.00974351	1	12	0.131352	0.000287506	1.12023e-05	-0.000805345	0.00214545	0.000433576	0.00218883	11.4251	1.25843e-07
6307.73	449.995	97.0272	460.336	-12.1678	26.4116	-0.306303	0.000288216	0.260048	0.0115529	1	12	0.133073	0.000289079	1.11224e-05	0.000237174	0.00212352	0.000457871	0.00217233	12.1678	-7.99285e-08
5621.06	452.116	104.586	464.055	-13.0249	27.1123	-0.306298	0.000297437	0.270724	0.0137511	1	12	0.134404	0.00028963	1.13674e-05	-0.000725151	0.00209948	0.000485665	0.00215492	13.0249	2.45036e-07
5011.6	454.379	113.03	468.226	-13.9692	27.8727	-0.306308	0.000273462	0.280963	0.0163729	1	12	0.135445	0.000289272	1.16352e-05	-0.000404376	0.00207256	0.000515564	0.00213572	13.9692	2.67766e-07
4466.43	456.722	122.597	472.89	-15.0255	28.6327	-0.306301	0.000293394	0.290658	0.0195352	1	12	0.136232	0.000288085	1.19328e-05	-0.00048457	0.00204236	0.000548224	0.00211466	15.0255	2.9759e-07
3981.27	459.169	133.368	478.145	-16.1962	29.3927	-0.306299	0.000306452	0.299742	0.02332	1	12	0.136804	0.000286115	1.1877e-05	-0.00048457	0.00200841	0.000583353	0.00209142	16.1962	-5.57359e-08
3546.6	461.797	145.535	484.187	-17.4922	30.1529	-0.30631	0.000274803	0.308348	0.0278579	1	12	0.13721	0.000283383	1.19747e-05	-0.000163795	0.00196981	0.000620784	0.00206532	17.4922	9.76354e-08
3161.01	464.615	159.146	491.115	-18.908	30.9127	-0.306307	0.000284527	0.316373	0.0332217	1	12	0.137476	0.000279926	1.20453e-05	-8.36012e-05	0.00192631	0.000659823	0.00203618	18.908	7.05769e-08
2817.3	467.668	174.382	499.121	-20.4493	31.6729	-0.306317	0.000270425	0.323956	0.0395437	1	12	0.137632	0.000275748	1.19048e-05	-0.000805345	0.00187726	0.000699986	0.00200352	20.4493	-1.40496e-07
2510.8	470.976	191.443	508.398	-22.1208	32.4327	-0.306309	0.000310289	0.331107	0.0469503	1	12	0.137694	0.000270838	1.17635e-05	-0.000644957	0.00182218	0.000740681	0.00196696	22.1208	-1.41278e-07
2237.85	474.601	210.465	519.174	-23.9152	33.1929	-0.306309	0.000271207	0.337916	0.055532	1	12	0.137687	0.000265203	1.19431e-05	-3.40745e-06	0.00176077	0.000780826	0.00192614	23.9152	1.79642e-07
1995.64	478.468	231.574	531.562	-25.8265	33.9527	-0.306302	0.000290617	0.344389	0.0653612	1	12	0.137612	0.000258883	1.18584e-05	-0.000725151	0.00169334	0.000819561	0.00188125	25.8265	-8.47326e-08
1778.29	482.886	255.254	546.199	-27.861	34.713	-0.306312	0.000274931	0.350626	0.0765752	1	12	0.137494	0.000251728	1.2135e-05	-0.000644957	0.00161861	0.000855601	0.00183083	27.861	2.76577e-07
1585.51	487.724	281.485	563.124	-29.991	35.4727	-0.306301	0.000288939	0.356612	0.0891046	1	12	0.137339	0.000243887	1.21785e-05	-3.40745e-06	0.00153803	0.000887664	0.00177581	29.991	4.35594e-08
1411.84	493.16	311.083	583.078	-32.2435	36.2342	-0.306313	0.000306543	0.362376	0.103147	1	12	0.137149	0.000235216	1.24161e-05	-0.000243989	0.00145056	0.000915004	0.00171504	32.2435	2.37599e-07
1258.79	499.176	343.52	605.956	-34.5347	36.9939	-0.306313	0.000284599	0.368056	0.118287	1	12	0.13694	0.000225991	1.24619e-05	-0.000243989	0.00135948	0.000935556	0.00165028	34.5347	4.57737e-08
1121.79	505.932	379.7	632.565	-36.8881	37.7524	-0.306314	0.000269454	0.373651	0.134628	1	12	0.136721	0.000216137	1.25632e-05	-0.000163795	0.00126439	0.000948921	0.00158086	36.8881	1.01261e-07
1000.32	513.463	419.706	663.173	-39.2626	38.5117	-0.306295	0.000295515	0.379084	0.151835	1	12	0.136495	0.000205821	1.28048e-05	-0.000965732	0.0011675	0.000954316	0.0015079	39.2626	2.41613e-07
891.427	522.08	464.309	698.678	-41.6481	39.2704	-0.306294	0.000289516	0.384528	0.16982	1	12	0.136269	0.000195038	1.30073e-05	-8.36012e-05	0.00106951	0.000951159	0.00143127	41.6481	2.02503e-07
794.238	531.842	513.914	739.57	-44.0178	40.03	-0.306299	0.000278992	0.389923	0.188279	1	12	0.136044	0.00018395	1.30062e-05	-0.000324182	0.000972354	0.000939575	0.00135214	44.0178	-1.10928e-09
707.509	542.863	569.022	786.439	-46.3477	40.7925	-0.306292	0.000281692	0.395329	0.20696	1	12	0.135834	0.00017272	1.3145e-05	-3.40745e-06	0.000877729	0.000920023	0.00127155	46.3477	1.38792e-07
631.01	555.56	629.539	839.623	-48.572	41.5504	-0.306295	0.00026489	0.400647	0.225236	1	12	0.135632	0.000161539	1.32593e-05	-0.000564764	0.000788067	0.000893005	0.00119101	48.572	1.1431e-07
562.339	570.157	696.994	900.488	-50.716	42.3069	-0.3063	0.0002862	0.406062	0.243273	1	12	0.135451	0.000150419	1.32205e-05	-8.36012e-05	0.000703134	0.000859553	0.00111051	50.716	-3.88097e-08
501.444	586.483	771.032	968.738	-52.7417	43.0642	-0.306297	0.000282101	0.411647	0.26077	1	12	0.135286	0.000139652	1.33946e-05	-8.36012e-05	0.000624947	0.000821599	0.00103227	52.7417	1.74122e-07
446.859	605.394	853.586	1046.48	-54.6544	43.8209	-0.306295	0.000278766	0.417256	0.277612	1	12	0.135129	0.000129128	1.33206e-05	7.67863e-05	0.000552815	0.000779452	0.000955589	54.6544	-7.39775e-08
398.089	627.326	944.579	1133.92	-56.4105	44.5837	-0.306295	0.00027558	0.423254	0.293708	1	12	0.135006	0.000119062	1.33558e-05	-0.000163795	0.0004879	0.000734642	0.000881899	56.4105	3.52249e-08
354.66	652.584	1045.28	1232.26	-58.0228	45.3439	-0.306289	0.00027545	0.429316	0.308911	1	12	0.1349	0.000109473	1.33705e-05	-0.000324182	0.000429765	0.000688376	0.000811516	58.0228	1.4633e-08
316.316	681.3	1155.09	1341.04	-59.4668	46.1009	-0.306296	0.00026187	0.435596	0.323168	1	12	0.134799	0.000100518	1.34747e-05	-0.000564764	0.000378837	0.000642287	0.000745688	59.4668	1.04184e-07
281.894	714.579	1276.87	1463.22	-60.7672	46.8564	-0.306294	0.000266751	0.442168	0.336713	1	12	0.134717	9.20688e-05	1.35272e-05	-0.000324182	0.000333756	0.000596384	0.000683423	60.7672	5.25805e-08
251.044	754.289	1412.28	1601.09	-61.8936	47.6129	-0.306298	0.000258703	0.4489	0.349269	1	12	0.13465	8.40993e-05	1.36777e-05	-0.000324182	0.000294244	0.000550922	0.000624576	61.8936	1.50512e-07
223.925	798.697	1558.85	1751.55	-62.8711	48.3757	-0.306297	0.000258517	0.455946	0.361141	1	12	0.134588	7.68395e-05	1.38095e-05	0.000237174	0.000260338	0.000508112	0.000570923	62.8711	1.31796e-07
199.553	850.452	1721.9	1920.47	-63.7151	49.1362	-0.306294	0.000292252	0.463185	0.372353	1	12	0.134547	7.00594e-05	1.38019e-05	0.000477755	0.000230587	0.000466866	0.000520706	63.7151	-7.64041e-09
177.781	910.083	1898.2	2105.09	-64.3848	49.9043	-0.306291	0.000354096	0.47162	0.383472	1	12	0.134503	6.38942e-05	1.38115e-05	-0.000564764	0.000205371	0.000428351	0.000475038	64.3848	9.57869e-09
158.428	978.448	2092.02	2309.52	-64.9343	50.6707	-0.306306	0.000277125	0.480199	0.39401	1	12	0.134471	5.82245e-05	1.39138e-05	-0.000965732	0.000183439	0.000392212	0.00043299	64.9343	1.02343e-07
141.311	1055.43	2300.12	2530.71	-65.3515	51.4239	-0.306295	0.000271351	0.489658	0.404492	1	12	0.134439	5.31233e-05	1.39337e-05	0.000317367	0.000164796	0.000359142	0.000395147	65.3515	1.98925e-08
125.846	1148.17	2532.77	2780.87	-65.6139	52.4294	-0.306302	2.79785e-05	0.499329	0.414207	1	13	0.135298	4.86534e-05	1.39494e-05	-0.000243989	0.000148473	0.000327518	0.0003596	65.6139	1.56443e-08
112.19	1251.73	2781.85	3050.5	-65.774	53.1748	-0.306304	2.81144e-05	0.509955	0.424091	1	13	0.135112	4.42918e-05	1.39452e-05	0.000237174	0.000134515	0.000298946	0.000327815	65.774	-4.12002e-09
100.032	1370.35	3051.12	3344.72	-65.8138	53.9347	-0.306302	3.03046e-05	0.521461	0.43393	1	13	0.134967	4.03524e-05	1.39766e-05	-0.00048457	0.000122493	0.000272734	0.000298978	65.8138	3.13447e-08
89.116	1506.78	3344.86	3668.58	-65.7495	54.7007	-0.306299	2.97775e-05	0.533933	0.443861	1	13	0.134847	3.67572e-05	1.39871e-05	-0.000324182	0.000111958	0.000248532	0.000272585	65.7495	1.05569e-08
79.4155	1662.3	3658.36	4018.31	-65.5637	55.4652	-0.306303	2.92392e-05	0.547808	0.45406	1	13	0.134747	3.35333e-05	1.39848e-05	7.67863e-05	0.000102949	0.000226568	0.000248861	65.5637	-2.34787e-09
70.8387	1837.37	3991.89	4394.44	-65.2846	56.2164	-0.306304	2.60469e-05	0.562821	0.464431	1	13	0.134668	3.06451e-05	1.39863e-05	-0.000725151	9.51456e-05	0.000206715	0.00022756	65.2846	1.50831e-09
63.0823	2037.47	4352.73	4805.99	-64.9161	56.9968	-0.306295	2.60207e-05	0.57963	0.475454	1	13	0.134599	2.80065e-05	1.40063e-05	-0.000965732	8.82117e-05	0.00018845	0.000208074	64.9161	1.99605e-08
56.2418	2260.12	4735.06	5246.8	-64.4841	57.7403	-0.306305	2.50298e-05	0.597634	0.486739	1	13	0.134547	2.56437e-05	1.39914e-05	-0.000885539	8.20999e-05	0.000172003	0.000190592	64.4841	-1.48143e-08
50.1444	2508.71	5138.67	5718.35	-63.9783	58.4972	-0.306294	2.82554e-05	0.617656	0.498777	1	13	0.134505	2.35216e-05	1.39817e-05	-0.00048457	7.67199e-05	0.000157148	0.000174876	63.9783	-9.75868e-09
44.6712	2787.8	5567.24	6226.23	-63.4005	59.2612	-0.306293	3.04457e-05	0.63996	0.51166	1	13	0.134475	2.15981e-05	1.39951e-05	-0.000644957	7.19136e-05	0.000143611	0.000160611	63.4005	1.33777e-08
39.8089	3095.16	6015.88	6765.41	-62.7742	60.0237	-0.306305	2.87098e-05	0.66457	0.525472	1	13	0.134447	1.98727e-05	1.40002e-05	-0.000404376	6.76231e-05	0.000131435	0.000147811	62.7742	5.10963e-09
35.4653	3430.21	6490.81	7341.46	-62.1449	60.7731	-0.3063	2.76687e-05	0.691381	0.540445	1	13	0.134423	1.83102e-05	1.401e-05	-8.36012e-05	6.36438e-05	0.00012043	0.000136213	62.1449	9.82632e-09
31.6296	3792.35	6983.07	7946.39	-61.4946	61.4974	-0.306296	2.73167e-05	0.720578	0.556459	1	13	0.134407	1.69142e-05	1.39976e-05	-0.000324182	6.00577e-05	0.000110588	0.000125843	61.4946	-1.2452e-08
28.1701	4188.73	7507.87	8597.3	-60.8423	62.3027	-0.306299	2.8963e-05	0.752515	0.573885	1	13	0.134389	1.56315e-05	1.39838e-05	-0.000644957	5.66706e-05	0.000101576	0.000116316	60.8423	-1.37052e-08
25.1044	4611.41	8049.58	9276.9	-60.1926	63.0589	-0.306305	2.92982e-05	0.787584	0.592976	1	13	0.134376	1.4485e-05	1.39915e-05	7.67863e-05	5.35832e-05	9.35336e-05	0.000107795	60.1926	7.60698e-09
22.3854	5053.01	8608.53	9981.97	-59.588	63.7454	-0.306301	2.69366e-05	0.825898	0.614259	1	13	0.134369	1.34612e-05	1.40229e-05	7.67863e-05	5.07128e-05	8.63965e-05	0.000100181	59.588	3.14089e-08
19.9553	5521.62	9194.29	10724.9	-59.0131	64.5072	-0.306301	2.91827e-05	0.867449	0.637521	1	13	0.134362	1.2528e-05	1.40443e-05	-0.000644957	4.80044e-05	7.99342e-05	9.32411e-05	59.0131	2.14729e-08
17.7961	6003.97	9805.53	11497.7	-58.5207	65.3515	-0.306301	2.40451e-05	0.91206	0.663357	1	13	0.134359	1.16858e-05	1.40543e-05	-0.000725151	4.54171e-05	7.41742e-05	8.69743e-05	58.5207	9.91551e-09
15.8576	6505.77	10453.4	12312.6	-58.1036	66.0729	-0.306308	2.73965e-05	0.960118	0.692062	1	13	0.134347	1.09114e-05	1.40044e-05	-0.000163795	4.29143e-05	6.89544e-05	8.12179e-05	58.1036	-4.98362e-08
14.119	7030.16	11152.7	13183.5	-57.7744	66.8753	-0.306305	2.95383e-05	1.01074	0.723324	1	13	0.134345	1.01904e-05	1.40448e-05	-0.000324182	4.04485e-05	6.41676e-05	7.58523e-05	57.7744	4.03872e-08
12.6008	7559.37	11899.9	14097.9	-57.5744	67.7659	-0.3063	2.62949e-05	1.0614	0.756231	1	13	0.134343	9.52929e-06	1.40722e-05	-0.000163795	3.80343e-05	5.98732e-05	7.09324e-05	57.5744	2.74029e-08
11.2249	8110.21	12719.8	15085.4	-57.4782	68.4499	-0.306312	2.19917e-05	1.1147	0.792513	1	13	0.134335	8.90498e-06	1.4034e-05	-0.00048457	3.56384e-05	5.58943e-05	6.62893e-05	57.4782	-3.81981e-08
10.0032	8669.69	13598	16126.7	-57.4796	69.2107	-0.306306	3.13337e-05	1.17006	0.831893	1	13	0.134339	8.33025e-06	1.40323e-05	-0.000324182	3.33361e-05	5.22861e-05	6.20092e-05	57.4796	-1.68564e-09
8.91838	9229.17	14558.8	17237.6	-57.6284	70.054	-0.306295	2.31091e-05	1.22577	0.874389	1	13	0.13434	7.79343e-06	1.40737e-05	7.67863e-05	3.10605e-05	4.89971e-05	5.80127e-05	57.6284	4.13378e-08
7.93953	9804.16	15618.2	18440.4	-57.8818	70.9927	-0.306295	2.502e-05	1.2835	0.920692	1	13	0.134336	7.28488e-06	1.40502e-05	-3.40745e-06	2.88317e-05	4.59292e-05	5.42288e-05	57.8818	-2.3475e-08
7.07654	10380.7	16772.5	19725	-58.2462	71.551	-0.306306	2.41334e-05	1.34091	0.969534	1	13	0.134331	6.8102e-06	1.40632e-05	-0.000805345	2.66803e-05	4.31086e-05	5.0697e-05	58.2462	1.30547e-08
6.31058	11017.8	18042.7	21140.7	-58.5897	72.1712	-0.306315	4.19496e-05	1.39781	1.01815	1	13	0.134325	6.35385e-06	1.41e-05	-0.000324182	2.46521e-05	4.03703e-05	4.73021e-05	58.5897	3.6735e-08
5.6205	11594.8	19490.8	22678.8	-59.2522	72.8577	-0.306314	3.43135e-05	1.45284	1.07308	1	13	0.134335	5.9234e-06	1.41348e-05	0.000477755	2.25435e-05	3.78956e-05	4.4094e-05	59.2522	3.47799e-08
5.01444	12239.2	21080.8	24376.2	-59.8611	73.6152	-0.306288	2.04979e-05	1.5056	1.12604	1	13	0.134338	5.51102e-06	1.41208e-05	-0.000564764	2.05979e-05	3.54777e-05	4.10236e-05	59.8611	-1.39231e-08
4.46939	12899.5	22784.8	26182.9	-60.4839	74.4565	-0.306294	2.08042e-05	1.56288	1.18354	1	13	0.134328	5.13036e-06	1.40577e-05	-0.000324182	1.88164e-05	3.32361e-05	3.81929e-05	60.4839	-6.31547e-08
3.97785	13600.5	24786.2	28272.4	-61.2459	75.6942	-0.30629	-2.14381e-06	1.61422	1.24067	1	14	0.134355	4.75216e-06	1.40879e-05	-0.00048457	1.70149e-05	3.10088e-05	3.53702e-05	61.2459	3.02041e-08
3.55114	14344.7	26967.3	30545.1	-61.9901	76.7354	-0.306303	1.16436e-05	1.66194	1.29541	1	14	0.134353	4.3985e-06	1.41438e-05	-3.40745e-06	1.53748e-05	2.89037e-05	3.27384e-05	61.9901	5.59338e-08
3.1604	15109.4	29396.1	33051.8	-62.7972	77.8972	-0.306294	6.52139e-07	1.71312	1.35512	1	14	0.134349	4.06479e-06	1.41926e-05	-0.000404376	1.38311e-05	2.6909e-05	3.02555e-05	62.7972	4.87803e-08
2.81836	15963.7	32060.6	35815.1	-63.5303	79.1926	-0.306288	3.33195e-06	1.76138	1.41144	1	14	0.134345	3.75109e-06	1.40908e-05	-0.00048457	1.24452e-05	2.49942e-05	2.79212e-05	63.5303	-1.0184e-07
2.51367	16889.8	35021.3	38881.3	-64.2533	80.6367	-0.306289	4.70248e-06	1.80792	1.46677	1	14	0.134344	3.45522e-06	1.41613e-05	-0.000163795	1.11723e-05	2.3166e-05	2.57193e-05	64.2533	7.05928e-08
2.23982	17843.6	38326.7	42276.9	-65.0349	82.2513	-0.306289	3.28502e-06	1.85398	1.52371	1	14	0.13434	3.17762e-06	1.41778e-05	-0.000805345	9.98338e-06	2.14435e-05	2.36536e-05	65.0349	1.64609e-08
1.99706	18914.6	41925.6	45994.8	-65.7176	84.0536	-0.306287	3.7836e-06	1.90086	1.5794	1	14	0.134341	2.92078e-06	1.40918e-05	-0.000404376	8.94088e-06	1.98181e-05	2.17416e-05	65.7176	-8.60153e-08
1.77961	20085.8	45941.5	50140.4	-66.3848	86.0729	-0.306285	4.94745e-06	1.94666	1.63427	1	14	0.134338	2.67924e-06	1.42195e-05	-0.000243989	7.98939e-06	1.82738e-05	1.9944e-05	66.3848	1.27662e-07
1.58469	21396.5	50401.9	54755.5	-66.9979	88.3321	-0.306284	2.47327e-06	1.99264	1.68837	1	14	0.134338	2.45341e-06	1.41037e-05	-0.00048457	7.13653e-06	1.68109e-05	1.8263e-05	66.9979	-1.15708e-07
1.41224	22805.9	55317.3	59834.1	-67.5949	90.8611	-0.306282	4.83249e-06	2.03728	1.74131	1	14	0.134337	2.24515e-06	1.41844e-05	-3.40745e-06	6.37017e-06	1.54513e-05	1.67129e-05	67.5949	8.06327e-08
1.25967	24340.9	60646.3	65348.7	-68.1315	93.6901	-0.306279	4.62999e-06	2.08333	1.79429	1	14	0.134333	2.05564e-06	1.41637e-05	-0.000564764	5.69985e-06	1.42014e-05	1.53025e-05	68.1315	-2.06781e-08
1.12249	26064.5	66616.4	71533.9	-68.6315	96.8581	-0.306277	3.91708e-06	2.12842	1.84585	1	14	0.134332	1.87788e-06	1.41363e-05	7.67863e-05	5.09361e-06	1.30184e-05	1.39794e-05	68.6315	-2.73985e-08
1.00006	27988.1	73167.7	78338	-69.0672	100.407	-0.306282	3.93747e-06	2.17507	1.89743	1	14	0.134332	1.71477e-06	1.42199e-05	-0.000644957	4.56066e-06	1.19227e-05	1.27652e-05	69.0672	8.35695e-08